time,la_x,la_y,uwb_x,uwb_y,vel_linear_x,vel_angular_z,mpu_ang_vel_z,mpu_linear_acc_x,mpu_linear_acc_y,odom_linear_x,odom_angular_z,odom_filtered_linear_x,odom_filtered_angular_z,odom_yaw,odom_filtered_yaw
1622816671.250375,0.0,0.0,0.0,0.0,,,,,,0.0,0.001833008399254401,0.0,0.001629983902297803,8.591425680064819e-05,0.0015133671975347221
1622816671.250375,0.0,0.0,0.0,0.0,,,,,,0.0,0.001833008399254401,0.0,0.001629983902297803,8.591425680064819e-05,0.0015133671975347221
1622816671.332375,0.0,0.0,0.0,0.0,,,,,,0.0,0.0018806206668668122,0.0,0.0017083334625686395,0.00012936908152073323,0.0015945976478303646
1622816671.332375,0.0,0.0,0.0,0.0,,,,,,0.0,0.0018806206668668122,0.0,0.0017083334625686395,0.00012936908152073323,0.0015945976478303646
1622816671.332375,0.0,0.0,0.0,0.0,,,,,,0.0,0.0018806206668668122,0.0,0.0017083334625686395,0.00012936908152073323,0.0015945976478303646
1622816671.332375,0.0,0.0,1.88,2.21,,,,,,0.0,0.0018806206668668122,0.0,0.0017083334625686395,0.00012936908152073323,0.0015945976478303646
1622816671.332375,0.0,0.0,1.88,2.21,0.0,0.0,,,,0.0,0.0018806206668668122,0.0,0.0017083334625686395,0.00012936908152073323,0.0015945976478303646
1622816671.370375,0.0,0.0,1.88,2.21,0.0,0.0,,,,0.0,0.0018039728876674069,0.0,0.0016909564412392675,8.660979318405847e-05,0.001573656397830878
1622816671.370375,0.0,0.0,1.88,2.21,0.0,0.0,,,,0.0,0.0018039728876674069,0.0,0.0016909564412392675,8.660979318405847e-05,0.001573656397830878
1622816671.370375,0.0,0.0,1.88,2.21,0.0,0.0,,,,0.0,0.0018039728876674069,0.0,0.0016909564412392675,8.660979318405847e-05,0.001573656397830878
1622816671.370375,0.0,0.0,1.88,2.21,0.0,0.0,,,,0.0,0.0018039728876674069,0.0,0.0016909564412392675,8.660979318405847e-05,0.001573656397830878
1622816671.370375,0.0,0.0,1.88,2.21,0.0,0.0,,,,0.0,0.0018039728876674069,0.0,0.0016909564412392675,8.660979318405847e-05,0.001573656397830878
1622816671.436375,0.0,0.0,1.88,2.21,0.0,0.0,,,,0.0,0.0018386342415396173,0.0,0.0017069014864665628,9.81337211140396e-05,0.0016087534213656855
1622816671.436375,0.0,0.0,1.88,2.21,0.0,0.0,,,,0.0,0.0018386342415396173,0.0,0.0017069014864665628,9.81337211140396e-05,0.0016087534213656855
1622816671.436375,0.0,0.0,1.87,2.2,0.0,0.0,,,,0.0,0.0018386342415396173,0.0,0.0017069014864665628,9.81337211140396e-05,0.0016087534213656855
1622816671.436375,0.0,0.0,1.87,2.2,0.0,0.0,,,,0.0,0.0018386342415396173,0.0,0.0017069014864665628,9.81337211140396e-05,0.0016087534213656855
1622816671.436375,0.0,0.0,1.87,2.2,0.0,0.0,,,,0.0,0.0018386342415396173,0.0,0.0017069014864665628,9.81337211140396e-05,0.0016087534213656855
1622816671.490375,0.0,0.0,1.87,2.2,0.0,0.0,,,,0.0,0.001734069089974055,0.0,0.0016538576548417567,8.394930090804062e-05,0.0016083906127388693
1622816671.490375,0.0,0.0,1.87,2.2,0.0,0.0,,,,0.0,0.001734069089974055,0.0,0.0016538576548417567,8.394930090804062e-05,0.0016083906127388693
1622816671.490375,0.0,0.0,1.87,2.2,0.0,0.0,,,,0.0,0.001734069089974055,0.0,0.0016538576548417567,8.394930090804062e-05,0.0016083906127388693
1622816671.490375,0.0,0.0,1.87,2.2,0.0,0.0,,,,0.0,0.001734069089974055,0.0,0.0016538576548417567,8.394930090804062e-05,0.0016083906127388693
1622816671.490375,0.0,0.0,1.87,2.2,0.0,0.0,,,,0.0,0.001734069089974055,0.0,0.0016538576548417567,8.394930090804062e-05,0.0016083906127388693
1622816671.550375,0.0,0.0,1.87,2.2,0.0,0.0,,,,0.0,0.0016053356408076865,0.0,0.0015684655980985715,7.936147456152037e-05,0.0016109869152113575
1622816671.550375,0.0,0.0,1.89,2.2,0.0,0.0,,,,0.0,0.0016053356408076865,0.0,0.0015684655980985715,7.936147456152037e-05,0.0016109869152113575
1622816671.550375,0.0,0.0,1.89,2.2,0.0,0.0,,,,0.0,0.0016053356408076865,0.0,0.0015684655980985715,7.936147456152037e-05,0.0016109869152113575
1622816671.550375,0.0,0.0,1.89,2.2,0.0,0.0,,,,0.0,0.0016053356408076865,0.0,0.0015684655980985715,7.936147456152037e-05,0.0016109869152113575
1622816671.550375,0.0,0.0,1.89,2.2,0.0,0.0,,,,0.0,0.0016053356408076865,0.0,0.0015684655980985715,7.936147456152037e-05,0.0016109869152113575
1622816671.550375,0.0,0.0,1.89,2.2,0.0,0.0,,,,0.0,0.0016053356408076865,0.0,0.001539830617071589,7.936147456152037e-05,0.0015282661069745752
1622816671.550375,0.0,0.0,1.89,2.2,0.0,0.0,,,,0.0,0.0016053356408076865,0.0,0.001539830617071589,7.936147456152037e-05,0.0015282661069745752
1622816671.550375,0.0,0.0,1.89,2.2,0.0,0.0,,,,0.0,0.0016053356408076865,0.0,0.001539830617071589,7.936147456152037e-05,0.0015282661069745752
1622816671.550375,0.0,0.0,1.89,2.2,0.0,0.0,,,,0.0,0.0016053356408076865,0.0,0.001539830617071589,7.936147456152037e-05,0.0015282661069745752
1622816671.550375,0.0,0.0,1.89,2.2,0.0,0.0,,,,0.0,0.0016053356408076865,0.0,0.001539830617071589,7.936147456152037e-05,0.0015282661069745752
1622816671.6325202,0.0,0.0,1.89,2.2,0.0,0.0,,,,0.0,0.001695095996510504,0.0,0.0015719871728143019,0.00010598584206368097,0.0015920344841989856
1622816671.6325202,0.0,0.0,1.88,2.2,0.0,0.0,,,,0.0,0.001695095996510504,0.0,0.0015719871728143019,0.00010598584206368097,0.0015920344841989856
1622816671.6325202,0.0,0.0,1.88,2.2,0.0,0.0,,,,0.0,0.001695095996510504,0.0,0.0015719871728143019,0.00010598584206368097,0.0015920344841989856
1622816671.6325202,0.0,0.0,1.88,2.2,0.0,0.0,,,,0.0,0.001695095996510504,0.0,0.0015719871728143019,0.00010598584206368097,0.0015920344841989856
1622816671.6325202,0.0,0.0,1.88,2.2,0.0,0.0,,,,0.0,0.001695095996510504,0.0,0.0015719871728143019,0.00010598584206368097,0.0015920344841989856
1622816671.6785202,0.0,0.0,1.88,2.2,0.0,0.0,,,,0.0,0.0016123294393929775,0.0,0.00153258248307232,7.82320373293721e-05,0.001575920782708747
1622816671.6785202,0.0,0.0,1.88,2.2,0.0,0.0,,,,0.0,0.0016123294393929775,0.0,0.00153258248307232,7.82320373293721e-05,0.001575920782708747
1622816671.6785202,0.0,0.0,1.88,2.2,0.0,0.0,,,,0.0,0.0016123294393929775,0.0,0.00153258248307232,7.82320373293721e-05,0.001575920782708747
1622816671.6785202,0.0,0.0,1.88,2.2,0.0,0.0,,,,0.0,0.0016123294393929775,0.0,0.00153258248307232,7.82320373293721e-05,0.001575920782708747
1622816671.6785202,0.0,0.0,1.88,2.2,0.0,0.0,,,,0.0,0.0016123294393929775,0.0,0.00153258248307232,7.82320373293721e-05,0.001575920782708747
1622816671.7385201,0.0,0.0,1.88,2.2,0.0,0.0,,,,0.0,0.001908423208334707,0.0,0.00153258248307232,8.640628081861612e-05,0.001575920782708747
1622816671.7385201,0.0,0.0,1.9,2.21,0.0,0.0,,,,0.0,0.001908423208334707,0.0,0.001641091321785996,8.640628081861612e-05,0.0015881479174748884
1622816671.7385201,0.0,0.0,1.9,2.21,0.0,0.0,,,,0.0,0.001908423208334707,0.0,0.001641091321785996,8.640628081861612e-05,0.0015881479174748884
1622816671.7385201,0.0,0.0,1.9,2.21,0.0,0.0,,,,0.0,0.001908423208334707,0.0,0.001641091321785996,8.640628081861612e-05,0.0015881479174748884
1622816671.7385201,0.0,0.0,1.9,2.21,0.0,0.0,,,,0.0,0.0017884697644634483,0.0,0.001641091321785996,8.478658245412588e-05,0.0015881479174748884
1622816671.79852,0.0,0.0,1.9,2.21,0.0,0.0,,,,0.0,0.0017884697644634483,0.0,0.0016296420615564682,8.478658245412588e-05,0.001597100842784765
1622816671.79852,0.0,0.0,1.9,2.21,0.0,0.0,,,,0.0,0.0017884697644634483,0.0,0.0016296420615564682,8.478658245412588e-05,0.001597100842784765
1622816671.79852,0.0,0.0,1.9,2.21,0.0,0.0,,,,0.0,0.0017884697644634483,0.0,0.0016296420615564682,8.478658245412588e-05,0.001597100842784765
1622816671.79852,0.0,0.0,1.9,2.21,0.0,0.0,,,,0.0,0.0017884697644634483,0.0,0.0016296420615564682,8.478658245412588e-05,0.001597100842784765
1622816671.79852,0.0,0.0,1.9,2.21,0.0,0.0,,,,0.0,0.0017608482109057304,0.0,0.0016296420615564682,8.467396096750493e-05,0.001597100842784765
1622816671.85852,0.0,0.0,1.89,2.21,0.0,0.0,,,,0.0,0.0017608482109057304,0.0,0.0016192261277763915,8.467396096750493e-05,0.0016037685550905104
1622816671.85852,0.0,0.0,1.89,2.21,0.0,0.0,,,,0.0,0.0017608482109057304,0.0,0.0016192261277763915,8.467396096750493e-05,0.0016037685550905104
1622816671.85852,0.0,0.0,1.89,2.21,0.0,0.0,,,,0.0,0.0017608482109057304,0.0,0.0016192261277763915,8.467396096750493e-05,0.0016037685550905104
1622816671.85852,0.0,0.0,1.89,2.21,0.0,0.0,,,,0.0,0.0017608482109057304,0.0,0.0016192261277763915,8.467396096750493e-05,0.0016037685550905104
1622816671.85852,0.0,0.0,1.89,2.21,0.0,0.0,,,,0.0,0.0017608482109057304,0.0,0.0016192261277763915,8.467396096750493e-05,0.0016037685550905104
1622816671.85852,0.0,0.0,1.89,2.21,0.0,0.0,,,,0.0,0.0017608482109057304,0.0,0.0016200772000177133,8.467396096750493e-05,0.001523094307075585
1622816671.85852,0.0,0.0,1.89,2.21,0.0,0.0,,,,0.0,0.0017608482109057304,0.0,0.0016200772000177133,8.467396096750493e-05,0.001523094307075585
1622816671.85852,0.0,0.0,1.89,2.21,0.0,0.0,,,,0.0,0.0017608482109057304,0.0,0.0016200772000177133,8.467396096750493e-05,0.001523094307075585
1622816671.85852,0.0,0.0,1.89,2.21,0.0,0.0,,,,0.0,0.0017608482109057304,0.0,0.0016200772000177133,8.467396096750493e-05,0.001523094307075585
1622816671.85852,0.0,0.0,1.89,2.21,0.0,0.0,,,,0.0,0.00181848216465003,0.0,0.0016200772000177133,0.00013301637237020283,0.001523094307075585
1622816671.94452,0.0,0.0,1.88,2.19,0.0,0.0,,,,0.0,0.00181848216465003,0.0,0.0016769512019259418,0.00013301637237020283,0.0016100486456408249
1622816671.94452,0.0,0.0,1.88,2.19,0.0,0.0,,,,0.0,0.00181848216465003,0.0,0.0016769512019259418,0.00013301637237020283,0.0016100486456408249
1622816671.94452,0.0,0.0,1.88,2.19,0.0,0.0,,,,0.0,0.00181848216465003,0.0,0.0016769512019259418,0.00013301637237020283,0.0016100486456408249
1622816671.94452,0.0,0.0,1.88,2.19,0.0,0.0,,,,0.0,0.00181848216465003,0.0,0.0016769512019259418,0.00013301637237020283,0.0016100486456408249
1622816671.94452,0.0,0.0,1.88,2.19,0.0,0.0,,,,0.0,0.0017516336406164618,0.0,0.0016769512019259418,8.426040579221406e-05,0.0016100486456408249
1622816671.9785202,0.0,0.0,1.88,2.19,0.0,0.0,,,,0.0,0.0017516336406164618,0.0,0.0016525649381920733,8.426040579221406e-05,0.0015785018778457383
1622816671.9785202,0.0,0.0,1.88,2.19,0.0,0.0,,,,0.0,0.0017516336406164618,0.0,0.0016525649381920733,8.426040579221406e-05,0.0015785018778457383
1622816671.9785202,0.0,0.0,1.88,2.19,0.0,0.0,,,,0.0,0.0017516336406164618,0.0,0.0016525649381920733,8.426040579221406e-05,0.0015785018778457383
1622816671.9785202,0.0,0.0,1.88,2.19,0.0,0.0,,,,0.0,0.0017516336406164618,0.0,0.0016525649381920733,8.426040579221406e-05,0.0015785018778457383
1622816671.9785202,0.0,0.0,1.88,2.19,0.0,0.0,,,,0.0,0.001718565492447957,0.0,0.0016525649381920733,8.29405595835101e-05,0.0015785018778457383
1622816672.03852,0.0,0.0,1.88,2.19,0.0,0.0,,,,0.0,0.001718565492447957,0.0,0.0016294943046696224,8.29405595835101e-05,0.0015880897251967791
1622816672.03852,0.0,0.0,1.89,2.2,0.0,0.0,,,,0.0,0.001718565492447957,0.0,0.0016294943046696224,8.29405595835101e-05,0.0015880897251967791
1622816672.03852,0.0,0.0,1.89,2.2,0.0,0.0,,,,0.0,0.001718565492447957,0.0,0.0016294943046696224,8.29405595835101e-05,0.0015880897251967791
1622816672.03852,0.0,0.0,1.89,2.2,0.0,0.0,,,,0.0,0.001718565492447957,0.0,0.0016294943046696224,8.29405595835101e-05,0.0015880897251967791
1622816672.03852,0.0,0.0,1.89,2.2,0.0,0.0,,,,0.0,0.0016107316922316082,0.0,0.0016294943046696224,7.863051243116247e-05,0.0015880897251967791
1622816672.09852,0.0,0.0,1.89,2.2,0.0,0.0,,,,0.0,0.0016107316922316082,0.0,0.0015615393615469933,7.863051243116247e-05,0.001592267824407753
1622816672.09852,0.0,0.0,1.89,2.2,0.0,0.0,,,,0.0,0.0016107316922316082,0.0,0.0015615393615469933,7.863051243116247e-05,0.001592267824407753
1622816672.09852,0.0,0.0,1.89,2.2,0.0,0.0,,,,0.0,0.0016107316922316082,0.0,0.0015615393615469933,7.863051243116247e-05,0.001592267824407753
1622816672.09852,0.0,0.0,1.89,2.2,0.0,0.0,,,,0.0,0.0016107316922316082,0.0,0.0015615393615469933,7.863051243116247e-05,0.001592267824407753
1622816672.09852,0.0,0.0,1.89,2.2,0.0,0.0,,,,0.0,0.0016925668336371148,0.0,0.0015615393615469933,8.128162669740663e-05,0.001592267824407753
1622816672.15852,0.0,0.0,1.89,2.2,0.0,0.0,,,,0.0,0.0016925668336371148,0.0,0.001553672678729872,8.128162669740663e-05,0.001595516617888106
1622816672.15852,0.0,0.0,1.88,2.21,0.0,0.0,,,,0.0,0.0016925668336371148,0.0,0.001553672678729872,8.128162669740663e-05,0.001595516617888106
1622816672.15852,0.0,0.0,1.88,2.21,0.0,0.0,,,,0.0,0.0016925668336371148,0.0,0.001553672678729872,8.128162669740663e-05,0.001595516617888106
1622816672.15852,0.0,0.0,1.88,2.21,0.0,0.0,,,,0.0,0.0016925668336371148,0.0,0.001553672678729872,8.128162669740663e-05,0.001595516617888106
1622816672.15852,0.0,0.0,1.88,2.21,0.0,0.0,,,,0.0,0.0016925668336371148,0.0,0.0015552529013435456,8.128162669740663e-05,0.0015152792620821043
1622816672.15852,0.0,0.0,1.88,2.21,0.0,0.0,,,,0.0,0.0016925668336371148,0.0,0.0015552529013435456,8.128162669740663e-05,0.0015152792620821043
1622816672.15852,0.0,0.0,1.88,2.21,0.0,0.0,,,,0.0,0.0016925668336371148,0.0,0.0015552529013435456,8.128162669740663e-05,0.0015152792620821043
1622816672.15852,0.0,0.0,1.88,2.21,0.0,0.0,,,,0.0,0.0016925668336371148,0.0,0.0015552529013435456,8.128162669740663e-05,0.0015152792620821043
1622816672.15852,0.0,0.0,1.88,2.21,0.0,0.0,,,,0.0,0.0016925668336371148,0.0,0.0015552529013435456,8.128162669740663e-05,0.0015152792620821043
1622816672.23652,0.0,0.0,1.88,2.21,0.0,0.0,,,,0.0,0.001697041929532375,0.0,0.0015552529013435456,0.0001115691168400171,0.0015152792620821043
1622816672.23652,0.0,0.0,1.88,2.21,0.0,0.0,,,,0.0,0.001697041929532375,0.0,0.0015834139484750367,0.0001115691168400171,0.0015771157525254177
1622816672.23652,0.0,0.0,1.89,2.21,0.0,0.0,,,,0.0,0.001697041929532375,0.0,0.0015834139484750367,0.0001115691168400171,0.0015771157525254177
1622816672.23652,0.0,0.0,1.89,2.21,0.0,0.0,,,,0.0,0.001697041929532375,0.0,0.0015834139484750367,0.0001115691168400171,0.0015771157525254177
1622816672.23652,0.0,0.0,1.89,2.21,0.0,0.0,,,,0.0,0.001697041929532375,0.0,0.0015834139484750367,0.0001115691168400171,0.0015771157525254177
1622816672.27852,0.0,0.0,1.89,2.21,0.0,0.0,,,,0.0,0.001621067368781127,0.0,0.0015456490163742638,7.862574658456408e-05,0.0015563378974338255
1622816672.27852,0.0,0.0,1.89,2.21,0.0,0.0,,,,0.0,0.001621067368781127,0.0,0.0015456490163742638,7.862574658456408e-05,0.0015563378974338255
1622816672.27852,0.0,0.0,1.89,2.21,0.0,0.0,,,,0.0,0.001621067368781127,0.0,0.0015456490163742638,7.862574658456408e-05,0.0015563378974338255
1622816672.27852,0.0,0.0,1.89,2.21,0.0,0.0,,,,0.0,0.001621067368781127,0.0,0.0015456490163742638,7.862574658456408e-05,0.0015563378974338255
1622816672.27852,0.0,0.0,1.89,2.21,0.0,0.0,,,,0.0,0.001621067368781127,0.0,0.0015456490163742638,7.862574658456408e-05,0.0015563378974338255
1622816672.3405201,0.0,0.0,1.89,2.21,0.0,0.0,,,,0.0,0.0020189437291277313,0.0,0.0017025889405502073,9.381549953124953e-05,0.0015801376335320577
1622816672.3405201,0.0,0.0,1.89,2.21,0.0,0.0,,,,0.0,0.0020189437291277313,0.0,0.0017025889405502073,9.381549953124953e-05,0.0015801376335320577
1622816672.3405201,0.0,0.0,1.89,2.21,0.0,0.0,,,,0.0,0.0020189437291277313,0.0,0.0017025889405502073,9.381549953124953e-05,0.0015801376335320577
1622816672.3405201,0.0,0.0,1.89,2.21,0.0,0.0,,,,0.0,0.0020189437291277313,0.0,0.0017025889405502073,9.381549953124953e-05,0.0015801376335320577
1622816672.3405201,0.0,0.0,1.89,2.21,0.0,0.0,,,,0.0,0.0020189437291277313,0.0,0.0017025889405502073,9.381549953124953e-05,0.0015801376335320577
1622816672.39852,0.0,0.0,1.89,2.21,0.0,0.0,,,,0.0,0.0018962284304716393,0.0,0.0017108832171253267,8.922173306507565e-05,0.0015917348968912946
1622816672.39852,0.0,0.0,1.89,2.21,0.0,0.0,,,,0.0,0.0018962284304716393,0.0,0.0017108832171253267,8.922173306507565e-05,0.0015917348968912946
1622816672.39852,0.0,0.0,1.89,2.21,0.0,0.0,,,,0.0,0.0018962284304716393,0.0,0.0017108832171253267,8.922173306507565e-05,0.0015917348968912946
1622816672.39852,0.0,0.0,1.89,2.21,0.0,0.0,,,,0.0,0.0018962284304716393,0.0,0.0017108832171253267,8.922173306507565e-05,0.0015917348968912946
1622816672.39852,0.0,0.0,1.89,2.21,0.0,0.0,,,,0.0,0.0018962284304716393,0.0,0.0017108832171253267,8.922173306507565e-05,0.0015917348968912946
1622816672.4585202,0.0,0.0,1.89,2.21,0.0,0.0,,,,0.0,0.001824123186659464,0.0,0.0016953256875241502,8.785527977262922e-05,0.001603632614005697
1622816672.4585202,0.0,0.0,1.89,2.21,0.0,0.0,,,,0.0,0.001824123186659464,0.0,0.0016953256875241502,8.785527977262922e-05,0.001603632614005697
1622816672.4585202,0.0,0.0,1.89,2.21,0.0,0.0,,,,0.0,0.001824123186659464,0.0,0.0016953256875241502,8.785527977262922e-05,0.001603632614005697
1622816672.4585202,0.0,0.0,1.88,2.21,0.0,0.0,,,,0.0,0.001824123186659464,0.0,0.0016953256875241502,8.785527977262922e-05,0.001603632614005697
1622816672.4585202,0.0,0.0,1.88,2.21,0.0,0.0,,,,0.0,0.001824123186659464,0.0,0.0016953256875241502,8.785527977262922e-05,0.001603632614005697
1622816672.4585202,0.0,0.0,1.88,2.21,0.0,0.0,,,,0.0,0.001824123186659464,0.0,0.001693980473675722,8.785527977262922e-05,0.0015234076440470434
1622816672.4585202,0.0,0.0,1.88,2.21,0.0,0.0,,,,0.0,0.001824123186659464,0.0,0.001693980473675722,8.785527977262922e-05,0.0015234076440470434
1622816672.4585202,0.0,0.0,1.88,2.21,0.0,0.0,,,,0.0,0.001824123186659464,0.0,0.001693980473675722,8.785527977262922e-05,0.0015234076440470434
1622816672.4585202,0.0,0.0,1.88,2.21,0.0,0.0,,,,0.0,0.001824123186659464,0.0,0.001693980473675722,8.785527977262922e-05,0.0015234076440470434
1622816672.4585202,0.0,0.0,1.88,2.21,0.0,0.0,,,,0.0,0.001824123186659464,0.0,0.001693980473675722,8.785527977262922e-05,0.0015234076440470434
1622816672.52852,0.0,0.0,1.88,2.21,0.0,0.0,,,,0.0,0.0017864500331413271,0.0,0.0016991658616837698,0.00010393614212506653,0.0015733227068091488
1622816672.52852,0.0,0.0,1.88,2.21,0.0,0.0,,,,0.0,0.0017864500331413271,0.0,0.0016991658616837698,0.00010393614212506653,0.0015733227068091488
1622816672.52852,0.0,0.0,1.88,2.21,0.0,0.0,,,,0.0,0.0017864500331413271,0.0,0.0016991658616837698,0.00010393614212506653,0.0015733227068091488
1622816672.52852,0.0,0.0,1.88,2.21,0.0,0.0,,,,0.0,0.0017864500331413271,0.0,0.0016991658616837698,0.00010393614212506653,0.0015733227068091488
1622816672.52852,0.0,0.0,1.88,2.21,0.0,0.0,,,,0.0,0.0017864500331413271,0.0,0.0016991658616837698,0.00010393614212506653,0.0015733227068091488
1622816672.57852,0.0,0.0,1.88,2.21,0.0,0.0,,,,0.0,0.0016925934213443882,0.0,0.0016465590201381382,8.254948546539347e-05,0.0015703953535097415
1622816672.57852,0.0,0.0,1.88,2.21,0.0,0.0,,,,0.0,0.0016925934213443882,0.0,0.0016465590201381382,8.254948546539347e-05,0.0015703953535097415
1622816672.57852,0.0,0.0,1.88,2.21,0.0,0.0,,,,0.0,0.0016925934213443882,0.0,0.0016465590201381382,8.254948546539347e-05,0.0015703953535097415
1622816672.57852,0.0,0.0,1.88,2.21,0.0,0.0,,,,0.0,0.0016925934213443882,0.0,0.0016465590201381382,8.254948546539347e-05,0.0015703953535097415
1622816672.57852,0.0,0.0,1.88,2.21,0.0,0.0,,,,0.0,0.0019781908571294892,0.0,0.0016465590201381382,9.045759144693303e-05,0.0015703953535097415
1622816672.63852,0.0,0.0,1.88,2.21,0.0,0.0,,,,0.0,0.0019781908571294892,0.0,0.0017385229308745933,9.045759144693303e-05,0.0015895745057437113
1622816672.63852,0.0,0.0,1.88,2.21,0.0,0.0,,,,0.0,0.0019781908571294892,0.0,0.0017385229308745933,9.045759144693303e-05,0.0015895745057437113
1622816672.63852,0.0,0.0,1.88,2.21,0.0,0.0,,,,0.0,0.0019781908571294892,0.0,0.0017385229308745933,9.045759144693303e-05,0.0015895745057437113
1622816672.63852,0.0,0.0,1.88,2.21,0.0,0.0,,,,0.0,0.0019781908571294892,0.0,0.0017385229308745933,9.045759144693303e-05,0.0015895745057437113
1622816672.63852,0.0,0.0,1.88,2.21,0.0,0.0,,,,0.0,0.0019781908571294892,0.0,0.0017385229308745933,9.045759144693303e-05,0.0015895745057437113
1622816672.6985202,0.0,0.0,1.88,2.21,0.0,0.0,,,,0.0,0.0018539860708231505,0.0,0.0017385229308745933,8.831070680191581e-05,0.0015895745057437113
1622816672.6985202,0.0,0.0,1.88,2.21,0.0,0.0,,,,0.0,0.0018539860708231505,0.0,0.0017178330107339222,8.831070680191581e-05,0.001604997035204497
1622816672.6985202,0.0,0.0,1.88,2.21,0.0,0.0,,,,0.0,0.0018539860708231505,0.0,0.0017178330107339222,8.831070680191581e-05,0.001604997035204497
1622816672.6985202,0.0,0.0,1.88,2.21,0.0,0.0,,,,0.0,0.0018539860708231505,0.0,0.0017178330107339222,8.831070680191581e-05,0.001604997035204497
1622816672.6985202,0.0,0.0,1.88,2.21,0.0,0.0,,,,0.0,0.0018539860708231505,0.0,0.0017178330107339222,8.831070680191581e-05,0.001604997035204497
1622816672.7585201,0.0,0.0,1.88,2.21,0.0,0.0,,,,0.0,0.0018071359773494215,0.0,0.0016900266806850837,8.74277943417173e-05,0.0016166518140166316
1622816672.7585201,0.0,0.0,1.88,2.21,0.0,0.0,,,,0.0,0.0018071359773494215,0.0,0.0016900266806850837,8.74277943417173e-05,0.0016166518140166316
1622816672.7585201,0.0,0.0,1.89,2.2,0.0,0.0,,,,0.0,0.0018071359773494215,0.0,0.0016900266806850837,8.74277943417173e-05,0.0016166518140166316
1622816672.7585201,0.0,0.0,1.89,2.2,0.0,0.0,,,,0.0,0.0018071359773494215,0.0,0.0016900266806850837,8.74277943417173e-05,0.0016166518140166316
1622816672.7585201,0.0,0.0,1.89,2.2,0.0,0.0,,,,0.0,0.0018071359773494215,0.0,0.0016900266806850837,8.74277943417173e-05,0.0016166518140166316
1622816672.7585201,0.0,0.0,1.89,2.2,0.0,0.0,,,,0.0,0.0018071359773494215,0.0,0.0016837893530078723,8.74277943417173e-05,0.0015362197976436039
1622816672.7585201,0.0,0.0,1.89,2.2,0.0,0.0,,,,0.0,0.0018071359773494215,0.0,0.0016837893530078723,8.74277943417173e-05,0.0015362197976436039
1622816672.7585201,0.0,0.0,1.89,2.2,0.0,0.0,,,,0.0,0.0018071359773494215,0.0,0.0016837893530078723,8.74277943417173e-05,0.0015362197976436039
1622816672.7585201,0.0,0.0,1.89,2.2,0.0,0.0,,,,0.0,0.0018071359773494215,0.0,0.0016837893530078723,8.74277943417173e-05,0.0015362197976436039
1622816672.7585201,0.0,0.0,1.89,2.2,0.0,0.0,,,,0.0,0.0018071359773494215,0.0,0.0016837893530078723,8.74277943417173e-05,0.0015362197976436039
1622816672.8405201,0.0,0.0,1.89,2.2,0.0,0.0,,,,0.0,0.002018371094804761,0.0,0.0017991182497312473,0.00013665959807343398,0.001623145670557392
1622816672.8405201,0.0,0.0,1.88,2.2,0.0,0.0,,,,0.0,0.002018371094804761,0.0,0.0017991182497312473,0.00013665959807343398,0.001623145670557392
1622816672.8405201,0.0,0.0,1.88,2.2,0.0,0.0,,,,0.0,0.002018371094804761,0.0,0.0017991182497312473,0.00013665959807343398,0.001623145670557392
1622816672.8405201,0.0,0.0,1.88,2.2,0.0,0.0,,,,0.0,0.002018371094804761,0.0,0.0017991182497312473,0.00013665959807343398,0.001623145670557392
1622816672.8405201,0.0,0.0,1.88,2.2,0.0,0.0,,,,0.0,0.002018371094804761,0.0,0.0017991182497312473,0.00013665959807343398,0.001623145670557392
1622816672.87852,0.0,0.0,1.88,2.2,0.0,0.0,,,,0.0,0.0019361662560073462,0.0,0.0017954907662294255,9.199833766559234e-05,0.0016048763168818707
1622816672.87852,0.0,0.0,1.88,2.2,0.0,0.0,,,,0.0,0.0019361662560073462,0.0,0.0017954907662294255,9.199833766559234e-05,0.0016048763168818707
1622816672.87852,0.0,0.0,1.88,2.2,0.0,0.0,,,,0.0,0.0019361662560073462,0.0,0.0017954907662294255,9.199833766559234e-05,0.0016048763168818707
1622816672.87852,0.0,0.0,1.88,2.2,0.0,0.0,,,,0.0,0.0019361662560073462,0.0,0.0017954907662294255,9.199833766559234e-05,0.0016048763168818707
1622816672.87852,0.0,0.0,1.88,2.2,0.0,0.0,,,,0.0,0.0019361662560073462,0.0,0.0017954907662294255,9.199833766559234e-05,0.0016048763168818707
1622816672.94452,0.0,0.0,1.88,2.2,0.0,0.0,,,,0.0,0.00209768917630063,0.0,0.001879422573573258,0.00010940854961233475,0.0016497756508564675
1622816672.94452,0.0,0.0,1.88,2.2,0.0,0.0,,,,0.0,0.00209768917630063,0.0,0.001879422573573258,0.00010940854961233475,0.0016497756508564675
1622816672.94452,0.0,0.0,1.88,2.19,0.0,0.0,,,,0.0,0.00209768917630063,0.0,0.001879422573573258,0.00010940854961233475,0.0016497756508564675
1622816672.94452,0.0,0.0,1.88,2.19,0.0,0.0,,,,0.0,0.00209768917630063,0.0,0.001879422573573258,0.00010940854961233475,0.0016497756508564675
1622816672.94452,0.0,0.0,1.88,2.19,0.0,0.0,,,,0.0,0.00209768917630063,0.0,0.001879422573573258,0.00010940854961233475,0.0016497756508564675
1622816672.9985201,0.0,0.0,1.88,2.19,0.0,0.0,,,,0.0,0.001978461417665187,0.0,0.0018510957149245838,9.466198674780271e-05,0.0016580198218124733
1622816672.9985201,0.0,0.0,1.88,2.19,0.0,0.0,,,,0.0,0.001978461417665187,0.0,0.0018510957149245838,9.466198674780271e-05,0.0016580198218124733
1622816672.9985201,0.0,0.0,1.88,2.19,0.0,0.0,,,,0.0,0.001978461417665187,0.0,0.0018510957149245838,9.466198674780271e-05,0.0016580198218124733
1622816672.9985201,0.0,0.0,1.88,2.19,0.0,0.0,,,,0.0,0.001978461417665187,0.0,0.0018510957149245838,9.466198674780271e-05,0.0016580198218124733
1622816672.9985201,0.0,0.0,1.88,2.19,0.0,0.0,,,,0.0,0.001978461417665187,0.0,0.0018510957149245838,9.466198674780271e-05,0.0016580198218124733
1622816673.05852,0.0,0.0,1.88,2.19,0.0,0.0,,,,0.0,0.001719244290124336,0.0,0.0017272443086950285,8.588192532447652e-05,0.0016665936060924387
1622816673.05852,0.0,0.0,1.88,2.2,0.0,0.0,,,,0.0,0.001719244290124336,0.0,0.0017272443086950285,8.588192532447652e-05,0.0016665936060924387
1622816673.05852,0.0,0.0,1.88,2.2,0.0,0.0,,,,0.0,0.001719244290124336,0.0,0.0017272443086950285,8.588192532447652e-05,0.0016665936060924387
1622816673.05852,0.0,0.0,1.88,2.2,0.0,0.0,,,,0.0,0.001719244290124336,0.0,0.0017272443086950285,8.588192532447652e-05,0.0016665936060924387
1622816673.05852,0.0,0.0,1.88,2.2,0.0,0.0,,,,0.0,0.001719244290124336,0.0,0.0017272443086950285,8.588192532447652e-05,0.0016665936060924387
1622816673.05852,0.0,0.0,1.88,2.2,0.0,0.0,,,,0.0,0.001719244290124336,0.0,0.0016837534128597827,8.588192532447652e-05,0.0015801920460219933
1622816673.05852,0.0,0.0,1.88,2.2,0.0,0.0,,,,0.0,0.001719244290124336,0.0,0.0016837534128597827,8.588192532447652e-05,0.0015801920460219933
1622816673.05852,0.0,0.0,1.88,2.2,0.0,0.0,,,,0.0,0.001719244290124336,0.0,0.0016837534128597827,8.588192532447652e-05,0.0015801920460219933
1622816673.05852,0.0,0.0,1.88,2.2,0.0,0.0,,,,0.0,0.001719244290124336,0.0,0.0016837534128597827,8.588192532447652e-05,0.0015801920460219933
1622816673.05852,0.0,0.0,1.88,2.2,0.0,0.0,,,,0.0,0.001644705303439093,0.0,0.0016837534128597827,0.00010449550379889498,0.0015801920460219933
1622816673.1325202,0.0,0.0,1.88,2.2,0.0,0.0,,,,0.0,0.001644705303439093,0.0,0.0016837534128597827,0.00010449550379889498,0.0015801920460219933
1622816673.1325202,0.0,0.0,1.89,2.21,0.0,0.0,,,,0.0,0.001644705303439093,0.0,0.0016300164102913267,0.00010449550379889498,0.0016341706633005246
1622816673.1325202,0.0,0.0,1.89,2.21,0.0,0.0,,,,0.0,0.001644705303439093,0.0,0.0016300164102913267,0.00010449550379889498,0.0016341706633005246
1622816673.1325202,0.0,0.0,1.89,2.21,0.0,0.0,,,,0.0,0.001644705303439093,0.0,0.0016300164102913267,0.00010449550379889498,0.0016341706633005246
1622816673.1785202,0.0,0.0,1.89,2.21,0.0,0.0,,,,0.0,0.001564540700638392,0.0,0.0015536185628867035,7.724074975747697e-05,0.0016165872027112007
1622816673.1785202,0.0,0.0,1.89,2.21,0.0,0.0,,,,0.0,0.001564540700638392,0.0,0.0015536185628867035,7.724074975747697e-05,0.0016165872027112007
1622816673.1785202,0.0,0.0,1.89,2.21,0.0,0.0,,,,0.0,0.001564540700638392,0.0,0.0015536185628867035,7.724074975747697e-05,0.0016165872027112007
1622816673.1785202,0.0,0.0,1.89,2.21,0.0,0.0,,,,0.0,0.001564540700638392,0.0,0.0015536185628867035,7.724074975747697e-05,0.0016165872027112007
1622816673.1785202,0.0,0.0,1.89,2.21,0.0,0.0,,,,0.0,0.001564540700638392,0.0,0.0015536185628867035,7.724074975747697e-05,0.0016165872027112007
1622816673.2385201,0.0,0.0,1.89,2.21,0.0,0.0,,,,0.0,0.0016671313665226602,0.0,0.0015474268217280074,7.867783261312666e-05,0.0016209319414474215
1622816673.2385201,0.0,0.0,1.89,2.21,0.0,0.0,,,,0.0,0.0016671313665226602,0.0,0.0015474268217280074,7.867783261312666e-05,0.0016209319414474215
1622816673.2385201,0.0,0.0,1.9,2.21,0.0,0.0,,,,0.0,0.0016671313665226602,0.0,0.0015474268217280074,7.867783261312666e-05,0.0016209319414474215
1622816673.2385201,0.0,0.0,1.9,2.21,0.0,0.0,,,,0.0,0.0016671313665226602,0.0,0.0015474268217280074,7.867783261312666e-05,0.0016209319414474215
1622816673.2385201,0.0,0.0,1.9,2.21,0.0,0.0,,,,0.0,0.0016671313665226602,0.0,0.0015474268217280074,7.867783261312666e-05,0.0016209319414474215
1622816673.29852,0.0,0.0,1.9,2.21,0.0,0.0,,,,0.0,0.0015623467013761267,0.0,0.0014878318724846026,7.548929022177426e-05,0.0016202763179451753
1622816673.29852,0.0,0.0,1.9,2.21,0.0,0.0,,,,0.0,0.0015623467013761267,0.0,0.0014878318724846026,7.548929022177426e-05,0.0016202763179451753
1622816673.29852,0.0,0.0,1.9,2.21,0.0,0.0,,,,0.0,0.0015623467013761267,0.0,0.0014878318724846026,7.548929022177426e-05,0.0016202763179451753
1622816673.29852,0.0,0.0,1.9,2.21,0.0,0.0,,,,0.0,0.0015623467013761267,0.0,0.0014878318724846026,7.548929022177426e-05,0.0016202763179451753
1622816673.29852,0.0,0.0,1.9,2.21,0.0,0.0,,,,0.0,0.0015623467013761267,0.0,0.0014878318724846026,7.548929022177426e-05,0.0016202763179451753
1622816673.29852,0.0,0.0,1.9,2.21,0.0,0.0,,,,0.0,0.0015417727569028217,0.0,0.0014878318724846026,7.471139102994315e-05,0.0016202763179451753
1622816673.35852,0.0,0.0,1.9,2.21,0.0,0.0,,,,0.0,0.0015417727569028217,0.0,0.001444410295118925,7.471139102994315e-05,0.0016159550171410768
1622816673.35852,0.0,0.0,1.9,2.21,0.0,0.0,,,,0.0,0.0015417727569028217,0.0,0.001444410295118925,7.471139102994315e-05,0.0016159550171410768
1622816673.35852,0.0,0.0,1.9,2.2,0.0,0.0,,,,0.0,0.0015417727569028217,0.0,0.001444410295118925,7.471139102994315e-05,0.0016159550171410768
1622816673.35852,0.0,0.0,1.9,2.2,0.0,0.0,,,,0.0,0.0015417727569028217,0.0,0.001444410295118925,7.471139102994315e-05,0.0016159550171410768
1622816673.35852,0.0,0.0,1.9,2.2,0.0,0.0,,,,0.0,0.0015417727569028217,0.0,0.0014321398064743728,7.471139102994315e-05,0.0015342431800474982
1622816673.35852,0.0,0.0,1.9,2.2,0.0,0.0,,,,0.0,0.0015417727569028217,0.0,0.0014321398064743728,7.471139102994315e-05,0.0015342431800474982
1622816673.35852,0.0,0.0,1.9,2.2,0.0,0.0,,,,0.0,0.0015417727569028217,0.0,0.0014321398064743728,7.471139102994315e-05,0.0015342431800474982
1622816673.35852,0.0,0.0,1.9,2.2,0.0,0.0,,,,0.0,0.0015417727569028217,0.0,0.0014321398064743728,7.471139102994315e-05,0.0015342431800474982
1622816673.35852,0.0,0.0,1.9,2.2,0.0,0.0,,,,0.0,0.0015417727569028217,0.0,0.0014321398064743728,7.471139102994315e-05,0.0015342431800474982
1622816673.42452,0.0,0.0,1.9,2.2,0.0,0.0,,,,0.0,0.0017667605356737944,0.0,0.0014321398064743728,9.103186305838267e-05,0.0015342431800474982
1622816673.42452,0.0,0.0,1.9,2.2,0.0,0.0,,,,0.0,0.0017667605356737944,0.0,0.0014321398064743728,9.103186305838267e-05,0.0015342431800474982
1622816673.42452,0.0,0.0,1.9,2.2,0.0,0.0,,,,0.0,0.0017667605356737944,0.0,0.0014321398064743728,9.103186305838267e-05,0.0015342431800474982
1622816673.42452,0.0,0.0,1.88,2.2,0.0,0.0,,,,0.0,0.0017667605356737944,0.0,0.0014321398064743728,9.103186305838267e-05,0.0015342431800474982
1622816673.42452,0.0,0.0,1.88,2.2,0.0,0.0,,,,0.0,0.0017667605356737944,0.0,0.0015417629246497824,9.103186305838267e-05,0.0015620912019468608
1622816673.4785202,0.0,0.0,1.88,2.2,0.0,0.0,,,,0.0,0.001666970173841384,0.0,0.0015417629246497824,7.92653454309483e-05,0.0015620912019468608
1622816673.4785202,0.0,0.0,1.88,2.2,0.0,0.0,,,,0.0,0.001666970173841384,0.0,0.0015417629246497824,7.92653454309483e-05,0.0015620912019468608
1622816673.4785202,0.0,0.0,1.88,2.2,0.0,0.0,,,,0.0,0.001666970173841384,0.0,0.0015417629246497824,7.92653454309483e-05,0.0015620912019468608
1622816673.4785202,0.0,0.0,1.88,2.2,0.0,0.0,,,,0.0,0.001666970173841384,0.0,0.0015417629246497824,7.92653454309483e-05,0.0015620912019468608
1622816673.4785202,0.0,0.0,1.88,2.2,0.0,0.0,,,,0.0,0.001666970173841384,0.0,0.0015370364133665366,7.92653454309483e-05,0.001561535347009172
1622816673.53852,0.0,0.0,1.88,2.2,0.0,0.0,,,,0.0,0.001849594043899189,0.0,0.0015370364133665366,8.545089646937366e-05,0.001561535347009172
1622816673.53852,0.0,0.0,1.88,2.2,0.0,0.0,,,,0.0,0.001849594043899189,0.0,0.0015370364133665366,8.545089646937366e-05,0.001561535347009172
1622816673.53852,0.0,0.0,1.88,2.21,0.0,0.0,,,,0.0,0.001849594043899189,0.0,0.0015370364133665366,8.545089646937366e-05,0.001561535347009172
1622816673.53852,0.0,0.0,1.88,2.21,0.0,0.0,,,,0.0,0.001849594043899189,0.0,0.001618765122536584,8.545089646937366e-05,0.0015746993089960682
1622816673.53852,0.0,0.0,1.88,2.21,0.0,0.0,,,,0.0,0.001849594043899189,0.0,0.001618765122536584,8.545089646937366e-05,0.0015746993089960682
1622816673.59852,0.0,0.0,1.88,2.21,0.0,0.0,,,,0.0,0.0017333213718259079,0.0,0.001618765122536584,8.29474721277601e-05,0.0015746993089960682
1622816673.59852,0.0,0.0,1.88,2.21,0.0,0.0,,,,0.0,0.0017333213718259079,0.0,0.001618765122536584,8.29474721277601e-05,0.0015746993089960682
1622816673.59852,0.0,0.0,1.88,2.21,0.0,0.0,,,,0.0,0.0017333213718259079,0.0,0.001618765122536584,8.29474721277601e-05,0.0015746993089960682
1622816673.59852,0.0,0.0,1.88,2.21,0.0,0.0,,,,0.0,0.0017333213718259079,0.0,0.001618765122536584,8.29474721277601e-05,0.0015746993089960682
1622816673.59852,0.0,0.0,1.88,2.21,0.0,0.0,,,,0.0,0.0017333213718259079,0.0,0.0015966413345172511,8.29474721277601e-05,0.0015841725477874608
1622816673.65852,0.0,0.0,1.88,2.21,0.0,0.0,,,,0.0,0.0017714839833537382,0.0,0.0015966413345172511,8.497694043309734e-05,0.0015841725477874608
1622816673.65852,0.0,0.0,1.88,2.21,0.0,0.0,,,,0.0,0.0017714839833537382,0.0,0.0015966413345172511,8.497694043309734e-05,0.0015841725477874608
1622816673.65852,0.0,0.0,1.88,2.21,0.0,0.0,,,,0.0,0.0017714839833537382,0.0,0.0015966413345172511,8.497694043309734e-05,0.0015841725477874608
1622816673.65852,0.0,0.0,1.88,2.21,0.0,0.0,,,,0.0,0.0017714839833537382,0.0,0.0016043235875528754,8.497694043309734e-05,0.0015927255422116494
1622816673.65852,0.0,0.0,1.88,2.21,0.0,0.0,,,,0.0,0.0017714839833537382,0.0,0.0016043235875528754,8.497694043309734e-05,0.0015927255422116494
1622816673.65852,0.0,0.0,1.88,2.21,0.0,0.0,,,,0.0,0.0017714839833537382,0.0,0.0016043235875528754,8.497694043309734e-05,0.0015927255422116494
1622816673.65852,0.0,0.0,1.88,2.21,0.0,0.0,,,,0.0,0.0017714839833537382,0.0,0.0016043235875528754,8.497694043309734e-05,0.0015927255422116494
1622816673.65852,0.0,0.0,1.88,2.21,0.0,0.0,,,,0.0,0.0017714839833537382,0.0,0.0016043235875528754,8.497694043309734e-05,0.0015927255422116494
1622816673.65852,0.0,0.0,1.88,2.21,0.0,0.0,,,,0.0,0.0017714839833537382,0.0,0.0016122704791404078,8.497694043309734e-05,0.0015146002157589028
1622816673.65852,0.0,0.0,1.88,2.21,0.0,0.0,,,,0.0,0.0017714839833537382,0.0,0.0016122704791404078,8.497694043309734e-05,0.0015146002157589028
1622816673.73652,0.0,0.0,1.88,2.21,0.0,0.0,,,,0.0,0.0019318122081696434,0.0,0.0016122704791404078,0.00012383877918900038,0.0015146002157589028
1622816673.73652,0.0,0.0,1.88,2.21,0.0,0.0,,,,0.0,0.0019318122081696434,0.0,0.0016122704791404078,0.00012383877918900038,0.0015146002157589028
1622816673.73652,0.0,0.0,1.88,2.2,0.0,0.0,,,,0.0,0.0019318122081696434,0.0,0.0016122704791404078,0.00012383877918900038,0.0015146002157589028
1622816673.73652,0.0,0.0,1.88,2.2,0.0,0.0,,,,0.0,0.0019318122081696434,0.0,0.0017174923593854614,0.00012383877918900038,0.0015865587132157675
1622816673.73652,0.0,0.0,1.88,2.2,0.0,0.0,,,,0.0,0.0019318122081696434,0.0,0.0017174923593854614,0.00012383877918900038,0.0015865587132157675
1622816673.77852,0.0,0.0,1.88,2.2,0.0,0.0,,,,0.0,0.0018453317571800521,0.0,0.0017174923593854614,8.811527550713839e-05,0.0015865587132157675
1622816673.77852,0.0,0.0,1.88,2.2,0.0,0.0,,,,0.0,0.0018453317571800521,0.0,0.0017174923593854614,8.811527550713839e-05,0.0015865587132157675
1622816673.77852,0.0,0.0,1.88,2.2,0.0,0.0,,,,0.0,0.0018453317571800521,0.0,0.0017100522958853946,8.811527550713839e-05,0.0015737423212060122
1622816673.77852,0.0,0.0,1.88,2.2,0.0,0.0,,,,0.0,0.0018453317571800521,0.0,0.0017100522958853946,8.811527550713839e-05,0.0015737423212060122
1622816673.77852,0.0,0.0,1.88,2.2,0.0,0.0,,,,0.0,0.0018453317571800521,0.0,0.0017100522958853946,8.811527550713839e-05,0.0015737423212060122
1622816673.8405201,0.0,0.0,1.88,2.2,0.0,0.0,,,,0.0,0.0019217599369854492,0.0,0.0017100522958853946,9.388586196478262e-05,0.0015737423212060122
1622816673.8405201,0.0,0.0,1.88,2.2,0.0,0.0,,,,0.0,0.0019217599369854492,0.0,0.0017100522958853946,9.388586196478262e-05,0.0015737423212060122
1622816673.8405201,0.0,0.0,1.88,2.2,0.0,0.0,,,,0.0,0.0019217599369854492,0.0,0.001749645552479826,9.388586196478262e-05,0.00159939704651587
1622816673.8405201,0.0,0.0,1.88,2.2,0.0,0.0,,,,0.0,0.0019217599369854492,0.0,0.001749645552479826,9.388586196478262e-05,0.00159939704651587
1622816673.8405201,0.0,0.0,1.88,2.2,0.0,0.0,,,,0.0,0.0019217599369854492,0.0,0.001749645552479826,9.388586196478262e-05,0.00159939704651587
1622816673.89852,0.0,0.0,1.88,2.2,0.0,0.0,,,,0.0,0.0018047946364392656,0.0,0.001749645552479826,8.692999760246387e-05,0.00159939704651587
1622816673.89852,0.0,0.0,1.88,2.2,0.0,0.0,,,,0.0,0.0018047946364392656,0.0,0.001749645552479826,8.692999760246387e-05,0.00159939704651587
1622816673.89852,0.0,0.0,1.88,2.2,0.0,0.0,,,,0.0,0.0018047946364392656,0.0,0.0017053808185359621,8.692999760246387e-05,0.0016093778142123505
1622816673.89852,0.0,0.0,1.88,2.2,0.0,0.0,,,,0.0,0.0018047946364392656,0.0,0.0017053808185359621,8.692999760246387e-05,0.0016093778142123505
1622816673.89852,0.0,0.0,1.88,2.2,0.0,0.0,,,,0.0,0.0018047946364392656,0.0,0.0017053808185359621,8.692999760246387e-05,0.0016093778142123505
1622816673.9585202,0.0,0.0,1.89,2.2,0.0,0.0,,,,0.0,0.0016811882829052295,0.0,0.0017053808185359621,8.277500295619706e-05,0.0016093778142123505
1622816673.9585202,0.0,0.0,1.89,2.2,0.0,0.0,,,,0.0,0.0016811882829052295,0.0,0.0017053808185359621,8.277500295619706e-05,0.0016093778142123505
1622816673.9585202,0.0,0.0,1.89,2.2,0.0,0.0,,,,0.0,0.0016811882829052295,0.0,0.0017053808185359621,8.277500295619706e-05,0.0016093778142123505
1622816673.9585202,0.0,0.0,1.89,2.2,0.0,0.0,,,,0.0,0.0016811882829052295,0.0,0.0016288071544965023,8.277500295619706e-05,0.001615773399313563
1622816673.9585202,0.0,0.0,1.89,2.2,0.0,0.0,,,,0.0,0.0016811882829052295,0.0,0.0016288071544965023,8.277500295619706e-05,0.001615773399313563
1622816673.9585202,0.0,0.0,1.89,2.2,0.0,0.0,,,,0.0,0.0016811882829052295,0.0,0.0016288071544965023,8.277500295619706e-05,0.001615773399313563
1622816673.9585202,0.0,0.0,1.89,2.2,0.0,0.0,,,,0.0,0.0016811882829052295,0.0,0.0016288071544965023,8.277500295619706e-05,0.001615773399313563
1622816673.9585202,0.0,0.0,1.89,2.2,0.0,0.0,,,,0.0,0.0016811882829052295,0.0,0.0016288071544965023,8.277500295619706e-05,0.001615773399313563
1622816673.9585202,0.0,0.0,1.89,2.2,0.0,0.0,,,,0.0,0.0016811882829052295,0.0,0.001603595729217784,8.277500295619706e-05,0.0015333505755202096
1622816673.9585202,0.0,0.0,1.89,2.2,0.0,0.0,,,,0.0,0.0019552603460943844,0.0,0.001603595729217784,0.00010842380837399455,0.0015333505755202096
1622816674.02852,0.0,0.0,1.89,2.2,0.0,0.0,,,,0.0,0.0019552603460943844,0.0,0.001603595729217784,0.00010842380837399455,0.0015333505755202096
1622816674.02852,0.0,0.0,1.89,2.21,0.0,0.0,,,,0.0,0.0019552603460943844,0.0,0.001603595729217784,0.00010842380837399455,0.0015333505755202096
1622816674.02852,0.0,0.0,1.89,2.21,0.0,0.0,,,,0.0,0.0019552603460943844,0.0,0.001603595729217784,0.00010842380837399455,0.0015333505755202096
1622816674.02852,0.0,0.0,1.89,2.21,0.02352174185216427,-1.554178008511542e-09,,,,0.0,0.0019552603460943844,0.0,0.0017176042028685125,0.00010842380837399455,0.0015835245167388752
1622816674.070172,0.0,0.0,1.89,2.21,0.02352174185216427,-1.554178008511542e-09,,,,0.0,0.0018692658283122618,0.0,0.0017176042028685125,8.529370067880549e-05,0.0015835245167388752
1622816674.070172,0.0,0.0,1.89,2.21,0.02352174185216427,-1.554178008511542e-09,,,,0.0,0.0018692658283122618,0.0,0.0017176042028685125,8.529370067880549e-05,0.0015835245167388752
1622816674.070172,0.0,0.0,1.89,2.21,0.02352174185216427,-1.554178008511542e-09,,,,0.0,0.0018692658283122618,0.0,0.0017176042028685125,8.529370067880549e-05,0.0015835245167388752
1622816674.070172,0.0,0.0,1.89,2.21,0.02352174185216427,-1.554178008511542e-09,,,,0.0,0.0018692658283122618,0.0,0.001720295740362727,8.529370067880549e-05,0.0015688412127582618
1622816674.070172,0.0,0.0,1.89,2.21,0.062091052532196045,0.016898488625884056,,,,0.0,0.0018692658283122618,0.0,0.001720295740362727,8.529370067880549e-05,0.0015688412127582618
1622816674.130172,3.0062595231260448e-05,-1.2836698354671451e-08,1.89,2.21,0.062091052532196045,0.016898488625884056,,,,0.00036707748635812266,0.001934520362494486,0.0,0.001720295740362727,-9.39914362949552e-05,0.0015688412127582618
1622816674.130172,3.0062595231260448e-05,-1.2836698354671451e-08,1.87,2.19,0.062091052532196045,0.016898488625884056,,,,0.00036707748635812266,0.001934520362494486,0.0,0.001720295740362727,-9.39914362949552e-05,0.0015688412127582618
1622816674.130172,3.0062595231260448e-05,-1.2836698354671451e-08,1.87,2.19,0.062091052532196045,0.016898488625884056,,,,0.00036707748635812266,0.001934520362494486,0.0,0.001720295740362727,-9.39914362949552e-05,0.0015688412127582618
1622816674.130172,3.0062595231260448e-05,-1.2836698354671451e-08,1.87,2.19,0.062091052532196045,0.016898488625884056,,,,0.00036707748635812266,0.001934520362494486,0.0,0.001720295740362727,-9.39914362949552e-05,0.0015688412127582618
1622816674.130172,3.0062595231260448e-05,-1.2836698354671451e-08,1.87,2.19,0.062091052532196045,0.016898488625884056,,,,0.00036707748635812266,0.001934520362494486,5.7185996051923506e-05,0.0017557106913616807,-9.39914362949552e-05,0.0015792970437493782
1622816674.1901722,0.002200446694820683,9.963633841565549e-08,1.87,2.19,0.062091052532196045,0.016898488625884056,,,,0.0258980746540609,0.0018447197821435226,5.7185996051923506e-05,0.0017557106913616807,0.0005632007168916343,0.0015792970437493782
1622816674.1901722,0.002200446694820683,9.963633841565549e-08,1.87,2.19,0.16287992894649506,-0.016486462205648422,,,,0.0258980746540609,0.0018447197821435226,5.7185996051923506e-05,0.0017557106913616807,0.0005632007168916343,0.0015792970437493782
1622816674.1901722,0.002200446694820683,9.963633841565549e-08,1.87,2.19,0.16287992894649506,-0.016486462205648422,,,,0.0258980746540609,0.0018447197821435226,5.7185996051923506e-05,0.0017557106913616807,0.0005632007168916343,0.0015792970437493782
1622816674.1901722,0.002200446694820683,9.963633841565549e-08,1.87,2.19,0.16287992894649506,-0.016486462205648422,,,,0.0258980746540609,0.0018447197821435226,0.0041905185841624336,0.0017453176567442238,0.0005632007168916343,0.0016234985065318392
1622816674.1901722,0.002200446694820683,9.963633841565549e-08,1.87,2.19,0.16287992894649506,-0.016486462205648422,,,,0.0258980746540609,0.0018447197821435226,0.0041905185841624336,0.0017453176567442238,0.0005632007168916343,0.0016234985065318392
1622816674.2501721,0.006314939815073257,1.6693187787449784e-07,1.87,2.19,0.16287992894649506,-0.016486462205648422,,,,0.05242491571460655,0.002386689449011964,0.0041905185841624336,0.0017453176567442238,0.00031624874629860916,0.0016234985065318392
1622816674.2501721,0.006314939815073257,1.6693187787449784e-07,1.87,2.19,0.16287992894649506,-0.016486462205648422,,,,0.05242491571460655,0.002386689449011964,0.0041905185841624336,0.0017453176567442238,0.00031624874629860916,0.0016234985065318392
1622816674.2501721,0.006314939815073257,1.6693187787449784e-07,1.87,2.19,0.28440889716148376,-0.016486063599586487,,,,0.05242491571460655,0.002386689449011964,0.0041905185841624336,0.0017453176567442238,0.00031624874629860916,0.0016234985065318392
1622816674.2501721,0.006314939815073257,1.6693187787449784e-07,1.89,2.19,0.28440889716148376,-0.016486063599586487,,,,0.05242491571460655,0.002386689449011964,0.012164860626390432,0.0019632108828340454,0.00031624874629860916,0.0016660801199123647
1622816674.2501721,0.006314939815073257,1.6693187787449784e-07,1.89,2.19,0.28440889716148376,-0.016486063599586487,,,,0.05242491571460655,0.002386689449011964,0.012164860626390432,0.0019632108828340454,0.00031624874629860916,0.0016660801199123647
1622816674.2501721,0.009275895216852978,2.151485260754066e-07,1.89,2.19,0.28440889716148376,-0.016486063599586487,,,,0.05242491571460655,0.002386689449011964,0.012164860626390432,0.0019632108828340454,0.00031624874629860916,0.0016660801199123647
1622816674.2501721,0.009275895216852978,2.151485260754066e-07,1.89,2.19,0.28440889716148376,-0.016486063599586487,,,,0.05242491571460655,0.002386689449011964,0.012164860626390432,0.0019632108828340454,0.00031624874629860916,0.0016660801199123647
1622816674.2501721,0.009275895216852978,2.151485260754066e-07,1.89,2.19,0.28440889716148376,-0.016486063599586487,,,,0.05242491571460655,0.002386689449011964,0.017808507454343533,0.0020540242213213564,0.00031624874629860916,0.0016021085442945874
1622816674.2501721,0.009275895216852978,2.151485260754066e-07,1.89,2.19,0.39380139112472534,0.016486596316099167,,,,0.05242491571460655,0.002386689449011964,0.017808507454343533,0.0020540242213213564,0.00031624874629860916,0.0016021085442945874
1622816674.2501721,0.009275895216852978,2.151485260754066e-07,1.89,2.19,0.39380139112472534,0.016486596316099167,,,,0.05242491571460655,0.002386689449011964,0.017808507454343533,0.0020540242213213564,0.00031624874629860916,0.0016021085442945874
1622816674.3321722,0.01503457106677879,-3.40558265767784e-07,1.89,2.19,0.39380139112472534,0.016486596316099167,,,,0.08983265701888811,-0.0006923502810525584,0.017808507454343533,0.0020540242213213564,-0.0004499846936961681,0.0016021085442945874
1622816674.3321722,0.01503457106677879,-3.40558265767784e-07,1.89,2.19,0.39380139112472534,0.016486596316099167,,,,0.08983265701888811,-0.0006923502810525584,0.017808507454343533,0.0020540242213213564,-0.0004499846936961681,0.0016021085442945874
1622816674.3321722,0.01503457106677879,-3.40558265767784e-07,1.89,2.19,0.39380139112472534,0.016486596316099167,,,,0.08983265701888811,-0.0006923502810525584,0.02954178253604471,0.0007817348976633328,-0.0004499846936961681,0.001612792515689287
1622816674.3321722,0.01503457106677879,-3.40558265767784e-07,1.91,2.19,0.5035693645477295,0.01648765802383423,,,,0.08983265701888811,-0.0006923502810525584,0.02954178253604471,0.0007817348976633328,-0.0004499846936961681,0.001612792515689287
1622816674.3321722,0.01503457106677879,-3.40558265767784e-07,1.91,2.19,0.5035693645477295,0.01648765802383423,,,,0.08983265701888811,-0.0006923502810525584,0.02954178253604471,0.0007817348976633328,-0.0004499846936961681,0.001612792515689287
1622816674.370172,0.02190757634495707,-1.0393830436009446e-06,1.91,2.19,0.5035693645477295,0.01648765802383423,,,,0.11602161206177673,-0.0006450446889632745,0.02954178253604471,0.0007817348976633328,-2.2021907517994026e-05,0.001612792515689287
1622816674.370172,0.02190757634495707,-1.0393830436009446e-06,1.91,2.19,0.5035693645477295,0.01648765802383423,,,,0.11602161206177673,-0.0006450446889632745,0.02954178253604471,0.0007817348976633328,-2.2021907517994026e-05,0.001612792515689287
1622816674.370172,0.02190757634495707,-1.0393830436009446e-06,1.91,2.19,0.5035693645477295,0.01648765802383423,,,,0.11602161206177673,-0.0006450446889632745,0.043196791666939724,0.00022497536114620488,-2.2021907517994026e-05,0.0015176867204160333
1622816674.370172,0.02190757634495707,-1.0393830436009446e-06,1.91,2.19,0.5035693645477295,0.01648765802383423,,,,0.11602161206177673,-0.0006450446889632745,0.043196791666939724,0.00022497536114620488,-2.2021907517994026e-05,0.0015176867204160333
1622816674.370172,0.02190757634495707,-1.0393830436009446e-06,1.91,2.19,0.5392277240753174,-0.01648978888988495,,,,0.11602161206177673,-0.0006450446889632745,0.043196791666939724,0.00022497536114620488,-2.2021907517994026e-05,0.0015176867204160333
1622816674.4301722,0.030876962154863533,6.096360872792534e-07,1.91,2.19,0.5392277240753174,-0.01648978888988495,,,,0.15302361266092562,-0.010257590440936926,0.043196791666939724,0.00022497536114620488,0.0007571946811869379,0.0015176867204160333
1622816674.4301722,0.030876962154863533,6.096360872792534e-07,1.91,2.19,0.5392277240753174,-0.01648978888988495,,,,0.15302361266092562,-0.010257590440936926,0.043196791666939724,0.00022497536114620488,0.0007571946811869379,0.0015176867204160333
1622816674.4301722,0.030876962154863533,6.096360872792534e-07,1.95,2.2,0.5392277240753174,-0.01648978888988495,,,,0.15302361266092562,-0.010257590440936926,0.06158508843283205,-0.0044450863522907304,0.0007571946811869379,0.0011922636516763531
1622816674.4301722,0.030876962154863533,6.096360872792534e-07,1.95,2.2,0.5392277240753174,-0.01648978888988495,,,,0.15302361266092562,-0.010257590440936926,0.06158508843283205,-0.0044450863522907304,0.0007571946811869379,0.0011922636516763531
1622816674.4301722,0.030876962154863533,6.096360872792534e-07,1.95,2.2,0.5392277240753174,-0.01648978888988495,,,,0.15302361266092562,-0.010257590440936926,0.06158508843283205,-0.0044450863522907304,0.0007571946811869379,0.0011922636516763531
1622816674.4901721,0.04171992553570798,3.967347726621646e-06,1.95,2.2,0.5392277240753174,-0.01648978888988495,,,,0.19166434258738455,-0.00962042895459125,0.06158508843283205,-0.0044450863522907304,0.0006354444992065246,0.0011922636516763531
1622816674.4901721,0.04171992553570798,3.967347726621646e-06,1.95,2.2,0.5449207425117493,-2.128538653778378e-06,,,,0.19166434258738455,-0.00962042895459125,0.08409512241654042,-0.006372773933904457,0.0006354444992065246,0.0007843501464504255
1622816674.4901721,0.04171992553570798,3.967347726621646e-06,1.95,2.2,0.5449207425117493,-2.128538653778378e-06,,,,0.19166434258738455,-0.00962042895459125,0.08409512241654042,-0.006372773933904457,0.0006354444992065246,0.0007843501464504255
1622816674.4901721,0.04171992553570798,3.967347726621646e-06,1.95,2.2,0.5449207425117493,-2.128538653778378e-06,,,,0.19166434258738455,-0.00962042895459125,0.08409512241654042,-0.006372773933904457,0.0006354444992065246,0.0007843501464504255
1622816674.4901721,0.04171992553570798,3.967347726621646e-06,1.95,2.2,0.5449207425117493,-2.128538653778378e-06,,,,0.19166434258738455,-0.00962042895459125,0.08409512241654042,-0.006372773933904457,0.0006354444992065246,0.0007843501464504255
1622816674.550172,0.05395312242531945,7.52819772615636e-06,1.95,2.2,0.5449207425117493,-2.128538653778378e-06,,,,0.22894589328600431,-0.014847738161836455,0.08409512241654042,-0.006372773933904457,-0.00017674085583085512,0.0007843501464504255
1622816674.550172,0.05395312242531945,7.52819772615636e-06,1.98,2.19,0.5253186821937561,2.1287430627126014e-06,,,,0.22894589328600431,-0.014847738161836455,0.10993453595129174,-0.009976988731564313,-0.00017674085583085512,0.00011884468363631492
1622816674.550172,0.05395312242531945,7.52819772615636e-06,1.98,2.19,0.5253186821937561,2.1287430627126014e-06,,,,0.22894589328600431,-0.014847738161836455,0.10993453595129174,-0.009976988731564313,-0.00017674085583085512,0.00011884468363631492
1622816674.550172,0.05395312242531945,7.52819772615636e-06,1.98,2.19,0.5253186821937561,2.1287430627126014e-06,,,,0.22894589328600431,-0.014847738161836455,0.10993453595129174,-0.009976988731564313,-0.00017674085583085512,0.00011884468363631492
1622816674.550172,0.05395312242531945,7.52819772615636e-06,1.98,2.19,0.5253186821937561,2.1287430627126014e-06,,,,0.22894589328600431,-0.014847738161836455,0.10993453595129174,-0.009976988731564313,-0.00017674085583085512,0.00011884468363631492
1622816674.550172,0.0627402783379793,1.0078580672083363e-05,1.98,2.19,0.5253186821937561,2.1287430627126014e-06,,,,0.22894589328600431,-0.014847738161836455,0.10993453595129174,-0.009976988731564313,-0.00017674085583085512,0.00011884468363631492
1622816674.550172,0.0627402783379793,1.0078580672083363e-05,1.98,2.19,0.5253186821937561,2.1287430627126014e-06,,,,0.22894589328600431,-0.014847738161836455,0.10993453595129174,-0.009976988731564313,-0.00017674085583085512,0.00011884468363631492
1622816674.550172,0.0627402783379793,1.0078580672083363e-05,1.98,2.19,0.5114090442657471,0.016487661749124527,,,,0.22894589328600431,-0.014847738161836455,0.12669703955747127,-0.011428979343864044,-0.00017674085583085512,8.121101720455856e-06
1622816674.550172,0.0627402783379793,1.0078580672083363e-05,1.98,2.19,0.5114090442657471,0.016487661749124527,,,,0.22894589328600431,-0.014847738161836455,0.12669703955747127,-0.011428979343864044,-0.00017674085583085512,8.121101720455856e-06
1622816674.550172,0.0627402783379793,1.0078580672083363e-05,1.98,2.19,0.5114090442657471,0.016487661749124527,,,,0.22894589328600431,-0.014847738161836455,0.12669703955747127,-0.011428979343864044,-0.00017674085583085512,8.121101720455856e-06
1622816674.6241722,0.07348588716198158,1.198295192641483e-05,1.98,2.19,0.5114090442657471,0.016487661749124527,,,,0.26570998105532373,-0.0027475595551906262,0.12669703955747127,-0.011428979343864044,-0.0005442878224987969,8.121101720455856e-06
1622816674.6241722,0.07348588716198158,1.198295192641483e-05,1.98,2.19,0.5114090442657471,0.016487661749124527,,,,0.26570998105532373,-0.0027475595551906262,0.12669703955747127,-0.011428979343864044,-0.0005442878224987969,8.121101720455856e-06
1622816674.6241722,0.07348588716198158,1.198295192641483e-05,2.04,2.21,0.4900355935096741,0.0,,,,0.26570998105532373,-0.0027475595551906262,0.12669703955747127,-0.011428979343864044,-0.0005442878224987969,8.121101720455856e-06
1622816674.6241722,0.07348588716198158,1.198295192641483e-05,2.04,2.21,0.4900355935096741,0.0,,,,0.26570998105532373,-0.0027475595551906262,0.12669703955747127,-0.011428979343864044,-0.0005442878224987969,8.121101720455856e-06
1622816674.6241722,0.07348588716198158,1.198295192641483e-05,2.04,2.21,0.4900355935096741,0.0,,,,0.26570998105532373,-0.0027475595551906262,0.15181082836390852,-0.007648591117275578,-0.0005442878224987969,-0.0006050762526807267
1622816674.6701722,0.0845670066370782,1.2622357523696702e-05,2.04,2.21,0.4900355935096741,0.0,,,,0.2927434296819861,-0.0026297648136156845,0.15181082836390852,-0.007648591117275578,-0.0008479907490325597,-0.0006050762526807267
1622816674.6701722,0.0845670066370782,1.2622357523696702e-05,2.04,2.21,0.4900355935096741,0.0,,,,0.2927434296819861,-0.0026297648136156845,0.15181082836390852,-0.007648591117275578,-0.0008479907490325597,-0.0006050762526807267
1622816674.6701722,0.0845670066370782,1.2622357523696702e-05,2.04,2.21,0.4900355935096741,0.0,,,,0.2927434296819861,-0.0026297648136156845,0.1762825275540086,-0.00585689774576962,-0.0008479907490325597,-0.000844063247427359
1622816674.6701722,0.0845670066370782,1.2622357523696702e-05,2.04,2.21,0.4900355935096741,0.0,,,,0.2927434296819861,-0.0026297648136156845,0.1762825275540086,-0.00585689774576962,-0.0008479907490325597,-0.000844063247427359
1622816674.6701722,0.0845670066370782,1.2622357523696702e-05,2.04,2.21,0.5205623507499695,-0.01690421625971794,,,,0.2927434296819861,-0.0026297648136156845,0.1762825275540086,-0.00585689774576962,-0.0008479907490325597,-0.000844063247427359
1622816674.7301722,0.09593451020748651,1.3060140924309081e-05,2.04,2.21,0.5205623507499695,-0.01690421625971794,,,,0.3182449128902624,0.008299417617444437,0.1762825275540086,-0.00585689774576962,-9.72037441953242e-05,-0.000844063247427359
1622816674.7301722,0.09593451020748651,1.3060140924309081e-05,2.04,2.21,0.5205623507499695,-0.01690421625971794,,,,0.3182449128902624,0.008299417617444437,0.20299675305447135,0.000381999266361668,-9.72037441953242e-05,-0.0006981450372998096
1622816674.7301722,0.09593451020748651,1.3060140924309081e-05,2.04,2.21,0.5205623507499695,-0.01690421625971794,,,,0.3182449128902624,0.008299417617444437,0.20299675305447135,0.000381999266361668,-9.72037441953242e-05,-0.0006981450372998096
1622816674.7301722,0.09593451020748651,1.3060140924309081e-05,2.09,2.25,0.5205623507499695,-0.01690421625971794,,,,0.3182449128902624,0.008299417617444437,0.20299675305447135,0.000381999266361668,-9.72037441953242e-05,-0.0006981450372998096
1622816674.7301722,0.09593451020748651,1.3060140924309081e-05,2.09,2.25,0.5205623507499695,-0.01690421625971794,,,,0.3182449128902624,0.008299417617444437,0.20299675305447135,0.000381999266361668,-9.72037441953242e-05,-0.0006981450372998096
1622816674.790172,0.10710705292459274,1.430746884993512e-05,2.09,2.25,0.49218472838401794,-0.016479147598147392,,,,0.3404640206945167,0.007800311251394897,0.20299675305447135,0.000381999266361668,0.00034789272563890675,-0.0006981450372998096
1622816674.790172,0.10710705292459274,1.430746884993512e-05,2.09,2.25,0.49218472838401794,-0.016479147598147392,,,,0.3404640206945167,0.007800311251394897,0.20299675305447135,0.000381999266361668,0.00034789272563890675,-0.0006981450372998096
1622816674.790172,0.10710705292459274,1.430746884993512e-05,2.09,2.25,0.49218472838401794,-0.016479147598147392,,,,0.3404640206945167,0.007800311251394897,0.23004208668696566,0.003141614560354114,0.00034789272563890675,-0.0003634658663150142
1622816674.790172,0.10710705292459274,1.430746884993512e-05,2.09,2.25,0.49218472838401794,-0.016479147598147392,,,,0.3404640206945167,0.007800311251394897,0.23004208668696566,0.003141614560354114,0.00034789272563890675,-0.0003634658663150142
1622816674.790172,0.10710705292459274,1.430746884993512e-05,2.09,2.25,0.49218472838401794,-0.016479147598147392,,,,0.3404640206945167,0.007800311251394897,0.23004208668696566,0.003141614560354114,0.00034789272563890675,-0.0003634658663150142
1622816674.850172,0.11770546720396152,1.6073037863451032e-05,2.09,2.25,0.49218472838401794,-0.016479147598147392,,,,0.35954047634022684,0.007665021218805333,0.23004208668696566,0.003141614560354114,0.0005446888426313372,-0.0003634658663150142
1622816674.850172,0.11770546720396152,1.6073037863451032e-05,2.09,2.25,0.49180904030799866,0.01648765802383423,,,,0.35954047634022684,0.007665021218805333,0.23004208668696566,0.003141614560354114,0.0005446888426313372,-0.0003634658663150142
1622816674.850172,0.11770546720396152,1.6073037863451032e-05,2.11,2.29,0.49180904030799866,0.01648765802383423,,,,0.35954047634022684,0.007665021218805333,0.23004208668696566,0.003141614560354114,0.0005446888426313372,-0.0003634658663150142
1622816674.850172,0.11770546720396152,1.6073037863451032e-05,2.11,2.29,0.49180904030799866,0.01648765802383423,,,,0.35954047634022684,0.007665021218805333,0.23004208668696566,0.003141614560354114,0.0005446888426313372,-0.0003634658663150142
1622816674.850172,0.11770546720396152,1.6073037863451032e-05,2.11,2.29,0.49180904030799866,0.01648765802383423,,,,0.35954047634022684,0.007665021218805333,0.23004208668696566,0.003141614560354114,0.0005446888426313372,-0.0003634658663150142
1622816674.850172,0.12531243560173655,1.7355145095329956e-05,2.11,2.29,0.49180904030799866,0.01648765802383423,,,,0.35954047634022684,0.007665021218805333,0.2566912671240395,0.005116556595387019,0.0005446888426313372,6.746879992659519e-05
1622816674.850172,0.12531243560173655,1.7355145095329956e-05,2.11,2.29,0.49180904030799866,0.01648765802383423,,,,0.35954047634022684,0.007665021218805333,0.2566912671240395,0.005116556595387019,0.0005446888426313372,6.746879992659519e-05
1622816674.850172,0.12531243560173655,1.7355145095329956e-05,2.11,2.29,0.5245798230171204,-0.016895491629838943,,,,0.35954047634022684,0.007665021218805333,0.2566912671240395,0.005116556595387019,0.0005446888426313372,6.746879992659519e-05
1622816674.850172,0.12531243560173655,1.7355145095329956e-05,2.11,2.29,0.5245798230171204,-0.016895491629838943,,,,0.35954047634022684,0.007665021218805333,0.2566912671240395,0.005116556595387019,0.0005446888426313372,6.746879992659519e-05
1622816674.850172,0.12531243560173655,1.7355145095329956e-05,2.11,2.29,0.5245798230171204,-0.016895491629838943,,,,0.37653840452708054,0.0096146665541465,0.27120607263862945,0.005893005451825331,0.0016713258251818115,0.0001781564142395566
1622816674.916172,0.1329786664217025,1.931747637861234e-05,2.18,2.34,0.5245798230171204,-0.016895491629838943,,,,0.37653840452708054,0.0096146665541465,0.2940741034428002,0.007566387515208918,0.0016713258251818115,0.0008467406489296791
1622816674.916172,0.1329786664217025,1.931747637861234e-05,2.18,2.34,0.5245798230171204,-0.016895491629838943,,,,0.37653840452708054,0.0096146665541465,0.2940741034428002,0.007566387515208918,0.0016713258251818115,0.0008467406489296791
1622816674.916172,0.1329786664217025,1.931747637861234e-05,2.18,2.34,0.5245798230171204,-0.016895491629838943,,,,0.37653840452708054,0.0096146665541465,0.2940741034428002,0.007566387515208918,0.0016713258251818115,0.0008467406489296791
1622816674.916172,0.1329786664217025,1.931747637861234e-05,2.18,2.34,0.49577251076698303,-0.016082629561424255,,,,0.37653840452708054,0.0096146665541465,0.2940741034428002,0.007566387515208918,0.0016713258251818115,0.0008467406489296791
1622816674.9701722,0.1402455847375447,2.1608038678713448e-05,2.18,2.34,0.49577251076698303,-0.016082629561424255,,,,0.39096671597516813,0.009075051801750444,0.2940741034428002,0.007566387515208918,0.0016885343592842163,0.0008467406489296791
1622816674.9701722,0.1402455847375447,2.1608038678713448e-05,2.18,2.34,0.49577251076698303,-0.016082629561424255,,,,0.39096671597516813,0.009075051801750444,0.2940741034428002,0.007566387515208918,0.0016885343592842163,0.0008467406489296791
1622816674.9701722,0.1402455847375447,2.1608038678713448e-05,2.18,2.34,0.49577251076698303,-0.016082629561424255,,,,0.39096671597516813,0.009075051801750444,0.3150818404021195,0.00813466746830262,0.0016885343592842163,0.0013823269032911083
1622816674.9701722,0.1402455847375447,2.1608038678713448e-05,2.18,2.34,0.49577251076698303,-0.016082629561424255,,,,0.39096671597516813,0.009075051801750444,0.3150818404021195,0.00813466746830262,0.0016885343592842163,0.0013823269032911083
1622816674.9701722,0.1402455847375447,2.1608038678713448e-05,2.18,2.34,0.49577251076698303,-0.016082629561424255,,,,0.39096671597516813,0.009075051801750444,0.3150818404021195,0.00813466746830262,0.0016885343592842163,0.0013823269032911083
1622816674.9701722,0.1402455847375447,2.1608038678713448e-05,2.18,2.34,0.5060927867889404,-0.032975319772958755,,,,0.40451809185582355,-0.0005256539297111285,0.3150818404021195,0.00813466746830262,0.0010414359573407853,0.0013823269032911083
1622816675.030172,0.1470006143906374,2.3008649912503386e-05,2.18,2.34,0.5060927867889404,-0.032975319772958755,,,,0.40451809185582355,-0.0005256539297111285,0.3150818404021195,0.00813466746830262,0.0010414359573407853,0.0013823269032911083
1622816675.030172,0.1470006143906374,2.3008649912503386e-05,2.23,2.35,0.5060927867889404,-0.032975319772958755,,,,0.40451809185582355,-0.0005256539297111285,0.3150818404021195,0.00813466746830262,0.0010414359573407853,0.0013823269032911083
1622816675.030172,0.1470006143906374,2.3008649912503386e-05,2.23,2.35,0.5060927867889404,-0.032975319772958755,,,,0.40451809185582355,-0.0005256539297111285,0.3150818404021195,0.00813466746830262,0.0010414359573407853,0.0013823269032911083
1622816675.030172,0.1470006143906374,2.3008649912503386e-05,2.23,2.35,0.5060927867889404,-0.032975319772958755,,,,0.40451809185582355,-0.0005256539297111285,0.3150818404021195,0.00813466746830262,0.0010414359573407853,0.0013823269032911083
1622816675.090172,0.15307181748523657,2.3554629169956343e-05,2.23,2.35,0.5060927867889404,-0.032975319772958755,,,,0.41654407431705537,-0.0005131631845884172,0.33635467985352296,0.004335012094740175,0.0006279509842136866,0.0014889806565780424
1622816675.090172,0.15307181748523657,2.3554629169956343e-05,2.23,2.35,0.4978756904602051,8.513727152603678e-06,,,,0.41654407431705537,-0.0005131631845884172,0.33635467985352296,0.004335012094740175,0.0006279509842136866,0.0014889806565780424
1622816675.090172,0.15307181748523657,2.3554629169956343e-05,2.23,2.35,0.4978756904602051,8.513727152603678e-06,,,,0.41654407431705537,-0.0005131631845884172,0.33635467985352296,0.004335012094740175,0.0006279509842136866,0.0014889806565780424
1622816675.090172,0.15307181748523657,2.3554629169956343e-05,2.23,2.35,0.4978756904602051,8.513727152603678e-06,,,,0.41654407431705537,-0.0005131631845884172,0.33635467985352296,0.004335012094740175,0.0006279509842136866,0.0014889806565780424
1622816675.090172,0.15307181748523657,2.3554629169956343e-05,2.23,2.35,0.4978756904602051,8.513727152603678e-06,,,,0.41654407431705537,-0.0005131631845884172,0.3567438417626917,0.002528922272155951,0.0006279509842136866,0.001346590068143031
1622816675.150172,0.1583254218684694,2.317947828289384e-05,2.23,2.35,0.4978756904602051,8.513727152603678e-06,,,,0.42680986462189774,0.000776211126865634,0.3567438417626917,0.002528922272155951,0.0004934943884549243,0.001346590068143031
1622816675.150172,0.1583254218684694,2.317947828289384e-05,2.23,2.35,0.4978756904602051,8.513727152603678e-06,,,,0.42680986462189774,0.000776211126865634,0.375953812731684,0.0017585094938270312,0.0004934943884549243,0.0011506932825173111
1622816675.150172,0.1583254218684694,2.317947828289384e-05,2.28,2.38,0.5057169198989868,8.515340596204624e-06,,,,0.42680986462189774,0.000776211126865634,0.375953812731684,0.0017585094938270312,0.0004934943884549243,0.0011506932825173111
1622816675.150172,0.1583254218684694,2.317947828289384e-05,2.28,2.38,0.5057169198989868,8.515340596204624e-06,,,,0.42680986462189774,0.000776211126865634,0.375953812731684,0.0017585094938270312,0.0004934943884549243,0.0011506932825173111
1622816675.150172,0.1583254218684694,2.317947828289384e-05,2.28,2.38,0.5057169198989868,8.515340596204624e-06,,,,0.42680986462189774,0.000776211126865634,0.375953812731684,0.0017585094938270312,0.0004934943884549243,0.0011506932825173111
1622816675.150172,0.16209340099091157,2.290356767988861e-05,2.28,2.38,0.5057169198989868,8.515340596204624e-06,,,,0.42680986462189774,0.000776211126865634,0.375953812731684,0.0017585094938270312,0.0004934943884549243,0.0011506932825173111
1622816675.150172,0.16209340099091157,2.290356767988861e-05,2.28,2.38,0.5057169198989868,8.515340596204624e-06,,,,0.42680986462189774,0.000776211126865634,0.375953812731684,0.0017585094938270312,0.0004934943884549243,0.0011506932825173111
1622816675.150172,0.16209340099091157,2.290356767988861e-05,2.28,2.38,0.5057170987129211,-8.514154615113512e-06,,,,0.42680986462189774,0.000776211126865634,0.375953812731684,0.0017585094938270312,0.0004934943884549243,0.0011506932825173111
1622816675.150172,0.16209340099091157,2.290356767988861e-05,2.28,2.38,0.5057170987129211,-8.514154615113512e-06,,,,0.42680986462189774,0.000776211126865634,0.375953812731684,0.0017585094938270312,0.0004934943884549243,0.0011506932825173111
1622816675.150172,0.16209340099091157,2.290356767988861e-05,2.28,2.38,0.5057170987129211,-8.514154615113512e-06,,,,0.42680986462189774,0.000776211126865634,0.375953812731684,0.0017585094938270312,0.0004934943884549243,0.0011506932825173111
1622816675.228172,0.16540032025106335,2.2353297677852824e-05,2.28,2.38,0.5057170987129211,-8.514154615113512e-06,,,,0.4367808030067986,0.008792406378422915,0.3831444032387334,0.0014568842685054274,0.0009856617465455637,0.0009840163487855108
1622816675.228172,0.16540032025106335,2.2353297677852824e-05,2.33,2.4,0.5057170987129211,-8.514154615113512e-06,,,,0.4367808030067986,0.008792406378422915,0.3831444032387334,0.0014568842685054274,0.0009856617465455637,0.0009840163487855108
1622816675.228172,0.16540032025106335,2.2353297677852824e-05,2.33,2.4,0.5057170987129211,-8.514154615113512e-06,,,,0.4367808030067986,0.008792406378422915,0.3831444032387334,0.0014568842685054274,0.0009856617465455637,0.0009840163487855108
1622816675.228172,0.16540032025106335,2.2353297677852824e-05,2.33,2.4,0.4882647395133972,-0.01649191789329052,,,,0.4367808030067986,0.008792406378422915,0.3831444032387334,0.0014568842685054274,0.0009856617465455637,0.0009840163487855108
1622816675.228172,0.16540032025106335,2.2353297677852824e-05,2.33,2.4,0.4882647395133972,-0.01649191789329052,,,,0.4367808030067986,0.008792406378422915,0.40209330943012145,0.004688030806973003,0.0009856617465455637,0.0011805747276815613
1622816675.270172,0.16819520435679405,2.113865228802996e-05,2.33,2.4,0.4882647395133972,-0.01649191789329052,,,,0.44376788418122765,0.008387599237402106,0.40209330943012145,0.004688030806973003,0.00058534527591261,0.0011805747276815613
1622816675.270172,0.16819520435679405,2.113865228802996e-05,2.33,2.4,0.4882647395133972,-0.01649191789329052,,,,0.44376788418122765,0.008387599237402106,0.41436443950441915,0.005986582637070077,0.00058534527591261,0.0011540272485621856
1622816675.270172,0.16819520435679405,2.113865228802996e-05,2.33,2.4,0.4882647395133972,-0.01649191789329052,,,,0.44376788418122765,0.008387599237402106,0.41436443950441915,0.005986582637070077,0.00058534527591261,0.0011540272485621856
1622816675.270172,0.16819520435679405,2.113865228802996e-05,2.33,2.4,0.4882647395133972,-0.01649191789329052,,,,0.44376788418122765,0.008387599237402106,0.41436443950441915,0.005986582637070077,0.00058534527591261,0.0011540272485621856
1622816675.270172,0.16819520435679405,2.113865228802996e-05,2.33,2.4,0.49535444378852844,0.04945872724056244,,,,0.44376788418122765,0.008387599237402106,0.41436443950441915,0.005986582637070077,0.00058534527591261,0.0011540272485621856
1622816675.3321722,0.17036239086954608,2.013693797065132e-05,2.33,2.4,0.49535444378852844,0.04945872724056244,,,,0.45083006506580836,0.017155460635960837,0.41436443950441915,0.005986582637070077,0.0009697995895658407,0.0011540272485621856
1622816675.3321722,0.17036239086954608,2.013693797065132e-05,2.33,2.4,0.49535444378852844,0.04945872724056244,,,,0.45083006506580836,0.017155460635960837,0.41436443950441915,0.005986582637070077,0.0009697995895658407,0.0011540272485621856
1622816675.3321722,0.17036239086954608,2.013693797065132e-05,2.38,2.33,0.49535444378852844,0.04945872724056244,,,,0.45083006506580836,0.017155460635960837,0.41436443950441915,0.005986582637070077,0.0009697995895658407,0.0011540272485621856
1622816675.3321722,0.17036239086954608,2.013693797065132e-05,2.38,2.33,0.49535444378852844,0.04945872724056244,,,,0.45083006506580836,0.017155460635960837,0.41436443950441915,0.005986582637070077,0.0009697995895658407,0.0011540272485621856
1622816675.3321722,0.17036239086954608,2.013693797065132e-05,2.38,2.33,0.49535444378852844,0.04945872724056244,,,,0.45083006506580836,0.017155460635960837,0.41436443950441915,0.005986582637070077,0.0009697995895658407,0.0011540272485621856
1622816675.390172,0.17186673262180452,1.873071857740854e-05,2.38,2.33,0.506094753742218,-0.032975319772958755,,,,0.45657045506744337,0.016135069100269347,0.4289220062732845,0.010915451476733224,0.0013908807453910912,0.0014972849122359343
1622816675.390172,0.17186673262180452,1.873071857740854e-05,2.38,2.33,0.506094753742218,-0.032975319772958755,,,,0.45657045506744337,0.016135069100269347,0.4289220062732845,0.010915451476733224,0.0013908807453910912,0.0014972849122359343
1622816675.390172,0.17186673262180452,1.873071857740854e-05,2.38,2.33,0.506094753742218,-0.032975319772958755,,,,0.45657045506744337,0.016135069100269347,0.4289220062732845,0.010915451476733224,0.0013908807453910912,0.0014972849122359343
1622816675.390172,0.17186673262180452,1.873071857740854e-05,2.38,2.33,0.506094753742218,-0.032975319772958755,,,,0.45657045506744337,0.016135069100269347,0.4289220062732845,0.010915451476733224,0.0013908807453910912,0.0014972849122359343
1622816675.390172,0.17186673262180452,1.873071857740854e-05,2.38,2.33,0.506094753742218,-0.032975319772958755,,,,0.45657045506744337,0.016135069100269347,0.44167152111531943,0.012820244250614654,0.0013908807453910912,0.0019168003247894934
1622816675.4501722,0.17270637877944484,1.7701940747682637e-05,2.38,2.33,0.506094753742218,-0.032975319772958755,,,,0.4617471073170548,0.009682561954496386,0.4535865655243649,0.011434011820055287,0.0015491797319607849,0.0022020341702554866
1622816675.4501722,0.17270637877944484,1.7701940747682637e-05,2.38,2.33,0.5096367001533508,-8.512249223713297e-06,,,,0.4617471073170548,0.009682561954496386,0.4535865655243649,0.011434011820055287,0.0015491797319607849,0.0022020341702554866
1622816675.4501722,0.17270637877944484,1.7701940747682637e-05,2.44,2.21,0.5096367001533508,-8.512249223713297e-06,,,,0.4617471073170548,0.009682561954496386,0.4535865655243649,0.011434011820055287,0.0015491797319607849,0.0022020341702554866
1622816675.4501722,0.17270637877944484,1.7701940747682637e-05,2.44,2.21,0.5096367001533508,-8.512249223713297e-06,,,,0.4617471073170548,0.009682561954496386,0.4535865655243649,0.011434011820055287,0.0015491797319607849,0.0022020341702554866
1622816675.4501722,0.17270637877944484,1.7701940747682637e-05,2.44,2.21,0.5096367001533508,-8.512249223713297e-06,,,,0.4617471073170548,0.009682561954496386,0.4535865655243649,0.011434011820055287,0.0015491797319607849,0.0022020341702554866
1622816675.4501722,0.17330919680698584,1.6952816591169175e-05,2.44,2.21,0.5096367001533508,-8.512249223713297e-06,,,,0.4617471073170548,0.009682561954496386,0.4535865655243649,0.011434011820055287,0.0015491797319607849,0.0022020341702554866
1622816675.4501722,0.17330919680698584,1.6952816591169175e-05,2.44,2.21,0.5096367001533508,-8.512249223713297e-06,,,,0.4617471073170548,0.009682561954496386,0.4535865655243649,0.011434011820055287,0.0015491797319607849,0.0022020341702554866
1622816675.4501722,0.17330919680698584,1.6952816591169175e-05,2.44,2.21,0.5139551162719727,0.033799704164266586,,,,0.4617471073170548,0.009682561954496386,0.4535865655243649,0.011434011820055287,0.0015491797319607849,0.0022020341702554866
1622816675.4501722,0.17330919680698584,1.6952816591169175e-05,2.44,2.21,0.5139551162719727,0.033799704164266586,,,,0.4617471073170548,0.009682561954496386,0.4535865655243649,0.011434011820055287,0.0015491797319607849,0.0022020341702554866
1622816675.4501722,0.17330919680698584,1.6952816591169175e-05,2.44,2.21,0.5139551162719727,0.033799704164266586,,,,0.4617471073170548,0.009682561954496386,0.45473743473383804,0.010897077896305228,0.0015491797319607849,0.0020076081872633937
1622816675.520172,0.17332061468877724,1.5776507577155426e-05,2.44,2.21,0.5139551162719727,0.033799704164266586,,,,0.46701277825467374,-0.0009917728591210973,0.45473743473383804,0.010897077896305228,0.0011797616583204482,0.0020076081872633937
1622816675.520172,0.17332061468877724,1.5776507577155426e-05,2.44,2.21,0.5139551162719727,0.033799704164266586,,,,0.46701277825467374,-0.0009917728591210973,0.45473743473383804,0.010897077896305228,0.0011797616583204482,0.0020076081872633937
1622816675.520172,0.17332061468877724,1.5776507577155426e-05,2.49,2.13,0.5139551162719727,0.033799704164266586,,,,0.46701277825467374,-0.0009917728591210973,0.45473743473383804,0.010897077896305228,0.0011797616583204482,0.0020076081872633937
1622816675.520172,0.17332061468877724,1.5776507577155426e-05,2.49,2.13,0.49787476658821106,1.71731046050283e-10,,,,0.46701277825467374,-0.0009917728591210973,0.45473743473383804,0.010897077896305228,0.0011797616583204482,0.0020076081872633937
1622816675.520172,0.17332061468877724,1.5776507577155426e-05,2.49,2.13,0.49787476658821106,1.71731046050283e-10,,,,0.46701277825467374,-0.0009917728591210973,0.46689082487313727,0.0057372635608398115,0.0011797616583204482,0.0021038648333981708
1622816675.570172,0.17295989138145895,1.386702850130623e-05,2.49,2.13,0.49787476658821106,1.71731046050283e-10,,,,0.4710899539292946,-0.000937353110680759,0.46689082487313727,0.0057372635608398115,0.0012380987077615614,0.0021038648333981708
1622816675.570172,0.17295989138145895,1.386702850130623e-05,2.49,2.13,0.49787476658821106,1.71731046050283e-10,,,,0.4710899539292946,-0.000937353110680759,0.46689082487313727,0.0057372635608398115,0.0012380987077615614,0.0021038648333981708
1622816675.570172,0.17295989138145895,1.386702850130623e-05,2.49,2.13,0.49787476658821106,1.71731046050283e-10,,,,0.4710899539292946,-0.000937353110680759,0.46689082487313727,0.0057372635608398115,0.0012380987077615614,0.0021038648333981708
1622816675.570172,0.17295989138145895,1.386702850130623e-05,2.49,2.13,0.49787476658821106,1.71731046050283e-10,,,,0.4710899539292946,-0.000937353110680759,0.4748700680893646,0.0033129252230984117,0.0012380987077615614,0.001876241704648862
1622816675.570172,0.17295989138145895,1.386702850130623e-05,2.49,2.13,0.5057181715965271,-1.7028736692736857e-05,,,,0.4710899539292946,-0.000937353110680759,0.4748700680893646,0.0033129252230984117,0.0012380987077615614,0.001876241704648862
1622816675.630172,0.17208657867102192,1.1696674594341833e-05,2.49,2.13,0.5057181715965271,-1.7028736692736857e-05,,,,0.4747489720009714,0.0008015275653913825,0.4748700680893646,0.0033129252230984117,0.0011294572139083226,0.001876241704648862
1622816675.630172,0.17208657867102192,1.1696674594341833e-05,2.49,2.13,0.5057181715965271,-1.7028736692736857e-05,,,,0.4747489720009714,0.0008015275653913825,0.4748700680893646,0.0033129252230984117,0.0011294572139083226,0.001876241704648862
1622816675.630172,0.17208657867102192,1.1696674594341833e-05,2.54,2.11,0.5057181715965271,-1.7028736692736857e-05,,,,0.4747489720009714,0.0008015275653913825,0.4835845889439324,0.002199797529736354,0.0011294572139083226,0.0016601054325171033
1622816675.630172,0.17208657867102192,1.1696674594341833e-05,2.54,2.11,0.5057181715965271,-1.7028736692736857e-05,,,,0.4747489720009714,0.0008015275653913825,0.4835845889439324,0.002199797529736354,0.0011294572139083226,0.0016601054325171033
1622816675.630172,0.17208657867102192,1.1696674594341833e-05,2.54,2.11,0.5057181715965271,-1.7028736692736857e-05,,,,0.4747489720009714,0.0008015275653913825,0.4835845889439324,0.002199797529736354,0.0011294572139083226,0.0016601054325171033
1622816675.6901722,0.17073273687085927,9.252446933667705e-06,2.54,2.11,0.508122444152832,0.016895489767193794,,,,0.47796800600177775,0.0007295980461700518,0.4835845889439324,0.002199797529736354,0.000698932927589937,0.0016601054325171033
1622816675.6901722,0.17073273687085927,9.252446933667705e-06,2.54,2.11,0.508122444152832,0.016895489767193794,,,,0.47796800600177775,0.0007295980461700518,0.4835845889439324,0.002199797529736354,0.000698932927589937,0.0016601054325171033
1622816675.6901722,0.17073273687085927,9.252446933667705e-06,2.54,2.11,0.508122444152832,0.016895489767193794,,,,0.47796800600177775,0.0007295980461700518,0.4835845889439324,0.002199797529736354,0.000698932927589937,0.0016601054325171033
1622816675.6901722,0.17073273687085927,9.252446933667705e-06,2.54,2.11,0.508122444152832,0.016895489767193794,,,,0.47796800600177775,0.0007295980461700518,0.4913291859942042,0.0016403081330553949,0.000698932927589937,0.0013235950631117108
1622816675.6901722,0.17073273687085927,9.252446933667705e-06,2.54,2.11,0.508122444152832,0.016895489767193794,,,,0.47796800600177775,0.0007295980461700518,0.4913291859942042,0.0016403081330553949,0.000698932927589937,0.0013235950631117108
1622816675.7501721,0.16894545017711332,6.7901903479521045e-06,2.54,2.11,0.508122444152832,0.016895489767193794,,,,0.48083501149051894,0.006510818696184474,0.4913291859942042,0.0016403081330553949,0.0007183313631194055,0.0013235950631117108
1622816675.7501721,0.16894545017711332,6.7901903479521045e-06,2.54,2.11,0.5117876529693604,-0.016517458483576775,,,,0.48083501149051894,0.006510818696184474,0.4913291859942042,0.0016403081330553949,0.0007183313631194055,0.0013235950631117108
1622816675.7501721,0.16894545017711332,6.7901903479521045e-06,2.59,2.15,0.5117876529693604,-0.016517458483576775,,,,0.48083501149051894,0.006510818696184474,0.4913291859942042,0.0016403081330553949,0.0007183313631194055,0.0013235950631117108
1622816675.7501721,0.16894545017711332,6.7901903479521045e-06,2.59,2.15,0.5117876529693604,-0.016517458483576775,,,,0.48083501149051894,0.006510818696184474,0.498161677182297,0.0037167389747355794,0.0007183313631194055,0.001190321782022859
1622816675.7501721,0.16894545017711332,6.7901903479521045e-06,2.59,2.15,0.5117876529693604,-0.016517458483576775,,,,0.48083501149051894,0.006510818696184474,0.498161677182297,0.0037167389747355794,0.0007183313631194055,0.001190321782022859
1622816675.7501721,0.16766312131418792,5.0511950443648995e-06,2.59,2.15,0.5117876529693604,-0.016517458483576775,,,,0.48083501149051894,0.006510818696184474,0.498161677182297,0.0037167389747355794,0.0007183313631194055,0.001190321782022859
1622816675.7501721,0.16766312131418792,5.0511950443648995e-06,2.59,2.15,0.5117876529693604,-0.016517458483576775,,,,0.48083501149051894,0.006510818696184474,0.498161677182297,0.0037167389747355794,0.0007183313631194055,0.001190321782022859
1622816675.7501721,0.16766312131418792,5.0511950443648995e-06,2.59,2.15,0.49787864089012146,1.702816371107474e-05,,,,0.48083501149051894,0.006510818696184474,0.4957140464745406,0.004551020515705463,0.0007183313631194055,0.0010687824273396416
1622816675.7501721,0.16766312131418792,5.0511950443648995e-06,2.59,2.15,0.49787864089012146,1.702816371107474e-05,,,,0.48083501149051894,0.006510818696184474,0.4957140464745406,0.004551020515705463,0.0007183313631194055,0.0010687824273396416
1622816675.7501721,0.16766312131418792,5.0511950443648995e-06,2.59,2.15,0.49787864089012146,1.702816371107474e-05,,,,0.48083501149051894,0.006510818696184474,0.4957140464745406,0.004551020515705463,0.0007183313631194055,0.0010687824273396416
1622816675.8321722,0.1655826298073674,4.0766429786180705e-06,2.59,2.15,0.49787864089012146,1.702816371107474e-05,,,,0.4838165991869916,0.014892642989535443,0.4957140464745406,0.004551020515705463,0.001594516446592907,0.0010687824273396416
1622816675.8321722,0.1655826298073674,4.0766429786180705e-06,2.59,2.15,0.49787864089012146,1.702816371107474e-05,,,,0.4838165991869916,0.014892642989535443,0.4957140464745406,0.004551020515705463,0.001594516446592907,0.0010687824273396416
1622816675.8321722,0.1655826298073674,4.0766429786180705e-06,2.65,2.16,0.49787864089012146,1.702816371107474e-05,,,,0.4838165991869916,0.014892642989535443,0.5054929506831163,0.009167855798663974,0.001594516446592907,0.001625933525317491
1622816675.8321722,0.1655826298073674,4.0766429786180705e-06,2.65,2.16,0.499648779630661,0.016483405604958534,,,,0.4838165991869916,0.014892642989535443,0.5054929506831163,0.009167855798663974,0.001594516446592907,0.001625933525317491
1622816675.8321722,0.1655826298073674,4.0766429786180705e-06,2.65,2.16,0.499648779630661,0.016483405604958534,,,,0.4838165991869916,0.014892642989535443,0.5054929506831163,0.009167855798663974,0.001594516446592907,0.001625933525317491
1622816675.870172,0.16347271574681146,3.5040465147127653e-06,2.65,2.16,0.499648779630661,0.016483405604958534,,,,0.485484596377747,0.0142791055348038,0.5054929506831163,0.009167855798663974,0.0011211375550946431,0.001625933525317491
1622816675.870172,0.16347271574681146,3.5040465147127653e-06,2.65,2.16,0.499648779630661,0.016483405604958534,,,,0.485484596377747,0.0142791055348038,0.5054929506831163,0.009167855798663974,0.0011211375550946431,0.001625933525317491
1622816675.870172,0.16347271574681146,3.5040465147127653e-06,2.65,2.16,0.499648779630661,0.016483405604958534,,,,0.485484596377747,0.0142791055348038,0.5077634732616716,0.01096066099174129,0.0011211375550946431,0.0016720444347560865
1622816675.870172,0.16347271574681146,3.5040465147127653e-06,2.65,2.16,0.499648779630661,0.016483405604958534,,,,0.485484596377747,0.0142791055348038,0.5077634732616716,0.01096066099174129,0.0011211375550946431,0.0016720444347560865
1622816675.870172,0.16347271574681146,3.5040465147127653e-06,2.65,2.16,0.4936772882938385,-1.6622849216219038e-05,,,,0.485484596377747,0.0142791055348038,0.5077634732616716,0.01096066099174129,0.0011211375550946431,0.0016720444347560865
1622816675.9301722,0.16096006517736386,2.517279101267336e-06,2.65,2.16,0.4936772882938385,-1.6622849216219038e-05,,,,0.4872263047551733,0.005732389397889507,0.5077634732616716,0.01096066099174129,0.001326101316396961,0.0016720444347560865
1622816675.9301722,0.16096006517736386,2.517279101267336e-06,2.65,2.16,0.4936772882938385,-1.6622849216219038e-05,,,,0.4872263047551733,0.005732389397889507,0.5077634732616716,0.01096066099174129,0.001326101316396961,0.0016720444347560865
1622816675.9301722,0.16096006517736386,2.517279101267336e-06,2.71,2.2,0.4936772882938385,-1.6622849216219038e-05,,,,0.4872263047551733,0.005732389397889507,0.51278342925998,0.00862430669929864,0.001326101316396961,0.001837806057622266
1622816675.9301722,0.16096006517736386,2.517279101267336e-06,2.71,2.2,0.4936772882938385,-1.6622849216219038e-05,,,,0.4872263047551733,0.005732389397889507,0.51278342925998,0.00862430669929864,0.001326101316396961,0.001837806057622266
1622816675.9301722,0.16096006517736386,2.517279101267336e-06,2.71,2.2,0.4936772882938385,-1.6622849216219038e-05,,,,0.4872263047551733,0.005732389397889507,0.51278342925998,0.00862430669929864,0.001326101316396961,0.001837806057622266
1622816675.9901721,0.1581290344790011,1.8216189565487382e-06,2.71,2.2,0.5057181715965271,-1.702640474832151e-05,,,,0.48899685946073673,0.005379602859953925,0.51278342925998,0.00862430669929864,0.0014639769847147794,0.001837806057622266
1622816675.9901721,0.1581290344790011,1.8216189565487382e-06,2.71,2.2,0.5057181715965271,-1.702640474832151e-05,,,,0.48899685946073673,0.005379602859953925,0.51278342925998,0.00862430669929864,0.0014639769847147794,0.001837806057622266
1622816675.9901721,0.1581290344790011,1.8216189565487382e-06,2.71,2.2,0.5057181715965271,-1.702640474832151e-05,,,,0.48899685946073673,0.005379602859953925,0.51278342925998,0.00862430669929864,0.0014639769847147794,0.001837806057622266
1622816675.9901721,0.1581290344790011,1.8216189565487382e-06,2.71,2.2,0.5057181715965271,-1.702640474832151e-05,,,,0.48899685946073673,0.005379602859953925,0.51278342925998,0.00862430669929864,0.0014639769847147794,0.001837806057622266
1622816675.9901721,0.1581290344790011,1.8216189565487382e-06,2.71,2.2,0.5057181715965271,-1.702640474832151e-05,,,,0.48899685946073673,0.005379602859953925,0.51278342925998,0.00862430669929864,0.0014639769847147794,0.001837806057622266
1622816676.050172,0.15503864913954207,6.121698240545945e-07,2.71,2.2,0.5057181715965271,-1.702640474832151e-05,,,,0.4905905343269114,-0.0013208545770381167,0.5170421023288272,0.0074051518471740935,0.001097479268333803,0.001935622996737935
1622816676.050172,0.15503864913954207,6.121698240545945e-07,2.77,2.22,0.5000244379043579,-0.016483403742313385,,,,0.4905905343269114,-0.0013208545770381167,0.5170421023288272,0.0074051518471740935,0.001097479268333803,0.001935622996737935
1622816676.050172,0.15503864913954207,6.121698240545945e-07,2.77,2.22,0.5000244379043579,-0.016483403742313385,,,,0.4905905343269114,-0.0013208545770381167,0.5170421023288272,0.0074051518471740935,0.001097479268333803,0.001935622996737935
1622816676.050172,0.15503864913954207,6.121698240545945e-07,2.77,2.22,0.5000244379043579,-0.016483403742313385,,,,0.4905905343269114,-0.0013208545770381167,0.5170421023288272,0.0074051518471740935,0.001097479268333803,0.001935622996737935
1622816676.050172,0.15281989878997995,-3.036396539919042e-07,2.77,2.22,0.5000244379043579,-0.016483403742313385,,,,0.4905905343269114,-0.0013208545770381167,0.5206294489167842,0.003685255257692634,0.001097479268333803,0.0017117890019146618
1622816676.050172,0.15281989878997995,-3.036396539919042e-07,2.77,2.22,0.5000244379043579,-0.016483403742313385,,,,0.4905905343269114,-0.0013208545770381167,0.5163932508303178,0.0021904225350956805,0.001097479268333803,0.0014948817466571033
1622816676.050172,0.15281989878997995,-3.036396539919042e-07,2.77,2.22,0.5000284910202026,-0.016483403742313385,,,,0.4905905343269114,-0.0013208545770381167,0.5163932508303178,0.0021904225350956805,0.001097479268333803,0.0014948817466571033
1622816676.050172,0.15281989878997995,-3.036396539919042e-07,2.77,2.22,0.5000284910202026,-0.016483403742313385,,,,0.4905905343269114,-0.0013208545770381167,0.5163932508303178,0.0021904225350956805,0.001097479268333803,0.0014948817466571033
1622816676.050172,0.15281989878997995,-3.036396539919042e-07,2.77,2.22,0.5000284910202026,-0.016483403742313385,,,,0.4905905343269114,-0.0013208545770381167,0.5163932508303178,0.0021904225350956805,0.001097479268333803,0.0014948817466571033
1622816676.1241722,0.149966779496052,-1.3353240259994374e-06,2.77,2.22,0.5000284910202026,-0.016483403742313385,,,,0.49202947354495274,-0.0016206124769554374,0.5163932508303178,0.0021904225350956805,0.0009707778070936537,0.0014948817466571033
1622816676.1241722,0.149966779496052,-1.3353240259994374e-06,2.77,2.22,0.5000284910202026,-0.016483403742313385,,,,0.49202947354495274,-0.0016206124769554374,0.5163932508303178,0.0021904225350956805,0.0009707778070936537,0.0014948817466571033
1622816676.1241722,0.149966779496052,-1.3353240259994374e-06,2.82,2.24,0.5000284910202026,-0.016483403742313385,,,,0.49202947354495274,-0.0016206124769554374,0.5163932508303178,0.0021904225350956805,0.0009707778070936537,0.0014948817466571033
1622816676.1241722,0.149966779496052,-1.3353240259994374e-06,2.82,2.24,0.5000266432762146,-0.016500430181622505,,,,0.49202947354495274,-0.0016206124769554374,0.5163932508303178,0.0021904225350956805,0.0009707778070936537,0.0014948817466571033
1622816676.1241722,0.149966779496052,-1.3353240259994374e-06,2.82,2.24,0.5000266432762146,-0.016500430181622505,,,,0.49202947354495274,-0.0016206124769554374,0.5163932508303178,0.0021904225350956805,0.0009707778070936537,0.0014948817466571033
1622816676.1701722,0.14705999253062624,-2.466513626848763e-06,2.82,2.24,0.5000266432762146,-0.016500430181622505,,,,0.49307875997324635,-0.0015698451553037788,0.5222627892431081,0.0005233679809319761,0.00039324619057056127,0.0013664225621295677
1622816676.1701722,0.14705999253062624,-2.466513626848763e-06,2.82,2.24,0.5000266432762146,-0.016500430181622505,,,,0.49307875997324635,-0.0015698451553037788,0.5222627892431081,0.0005233679809319761,0.00039324619057056127,0.0013664225621295677
1622816676.1701722,0.14705999253062624,-2.466513626848763e-06,2.82,2.24,0.5000266432762146,-0.016500430181622505,,,,0.49307875997324635,-0.0015698451553037788,0.5222627892431081,0.0005233679809319761,0.00039324619057056127,0.0013664225621295677
1622816676.1701722,0.14705999253062624,-2.466513626848763e-06,2.82,2.24,0.5000266432762146,-0.016500430181622505,,,,0.49307875997324635,-0.0015698451553037788,0.5222627892431081,0.0005233679809319761,0.00039324619057056127,0.0013664225621295677
1622816676.1701722,0.14705999253062624,-2.466513626848763e-06,2.82,2.24,0.5035701990127563,0.016500432044267654,,,,0.49307875997324635,-0.0015698451553037788,0.5236252406578332,-0.00023821715577486706,0.00039324619057056127,0.0009483633541277375
1622816676.2301722,0.14388168137964727,-3.285937226743915e-06,2.82,2.24,0.5035701990127563,0.016500432044267654,,,,0.4941721838164467,0.0020966879663108767,0.5236252406578332,-0.00023821715577486706,0.0006168547151478135,0.0009483633541277375
1622816676.2301722,0.14388168137964727,-3.285937226743915e-06,2.82,2.24,0.5035701990127563,0.016500432044267654,,,,0.4941721838164467,0.0020966879663108767,0.5263952698029329,0.0007824260643806296,0.0006168547151478135,0.0008232738825063193
1622816676.2301722,0.14388168137964727,-3.285937226743915e-06,2.85,2.24,0.5035701990127563,0.016500432044267654,,,,0.4941721838164467,0.0020966879663108767,0.5263952698029329,0.0007824260643806296,0.0006168547151478135,0.0008232738825063193
1622816676.2301722,0.14388168137964727,-3.285937226743915e-06,2.85,2.24,0.5035701990127563,0.016500432044267654,,,,0.4941721838164467,0.0020966879663108767,0.5263952698029329,0.0007824260643806296,0.0006168547151478135,0.0008232738825063193
1622816676.2301722,0.14388168137964727,-3.285937226743915e-06,2.85,2.24,0.5035701990127563,0.016500432044267654,,,,0.4941721838164467,0.0020966879663108767,0.5263952698029329,0.0007824260643806296,0.0006168547151478135,0.0008232738825063193
1622816676.290172,0.1404873129945637,-4.11656766911552e-06,2.85,2.24,0.5044902563095093,-0.016930395737290382,,,,0.4950074329903997,0.0019780158236695723,0.5263952698029329,0.0007824260643806296,0.0008787620907671619,0.0008232738825063193
1622816676.290172,0.1404873129945637,-4.11656766911552e-06,2.85,2.24,0.5044902563095093,-0.016930395737290382,,,,0.4950074329903997,0.0019780158236695723,0.5263952698029329,0.0007824260643806296,0.0008787620907671619,0.0008232738825063193
1622816676.290172,0.1404873129945637,-4.11656766911552e-06,2.85,2.24,0.5044902563095093,-0.016930395737290382,,,,0.4950074329903997,0.0019780158236695723,0.5263952698029329,0.0007824260643806296,0.0008787620907671619,0.0008232738825063193
1622816676.290172,0.1404873129945637,-4.11656766911552e-06,2.85,2.24,0.5044902563095093,-0.016930395737290382,,,,0.4950074329903997,0.0019780158236695723,0.5263952698029329,0.0007824260643806296,0.0008787620907671619,0.0008232738825063193
1622816676.290172,0.1404873129945637,-4.11656766911552e-06,2.85,2.24,0.5044902563095093,-0.016930395737290382,,,,0.4950074329903997,0.0019780158236695723,0.5263952698029329,0.0007824260643806296,0.0008787620907671619,0.0008232738825063193
1622816676.350172,0.13694188723127348,-4.062272796504419e-06,2.85,2.24,0.5044902563095093,-0.016930395737290382,,,,0.4958102174616435,0.009788686803121588,0.5285575233153134,0.001222620663559284,0.0008974223542778266,0.0008860412438583017
1622816676.350172,0.13694188723127348,-4.062272796504419e-06,2.85,2.24,0.49572697281837463,0.016500432044267654,,,,0.4958102174616435,0.009788686803121588,0.5285575233153134,0.001222620663559284,0.0008974223542778266,0.0008860412438583017
1622816676.350172,0.13694188723127348,-4.062272796504419e-06,2.9,2.25,0.49572697281837463,0.016500432044267654,,,,0.4958102174616435,0.009788686803121588,0.5285575233153134,0.001222620663559284,0.0008974223542778266,0.0008860412438583017
1622816676.350172,0.13694188723127348,-4.062272796504419e-06,2.9,2.25,0.49572697281837463,0.016500432044267654,,,,0.4958102174616435,0.009788686803121588,0.5285575233153134,0.001222620663559284,0.0008974223542778266,0.0008860412438583017
1622816676.350172,0.13694188723127348,-4.062272796504419e-06,2.9,2.25,0.49572697281837463,0.016500432044267654,,,,0.4958102174616435,0.009788686803121588,0.5302194658247306,0.004924556397758588,0.0008974223542778266,0.0010377864690249785
1622816676.350172,0.13439733774057472,-3.976309678599373e-06,2.9,2.25,0.49572697281837463,0.016500432044267654,,,,0.4958102174616435,0.009788686803121588,0.5302194658247306,0.004924556397758588,0.0008974223542778266,0.0010377864690249785
1622816676.350172,0.13439733774057472,-3.976309678599373e-06,2.9,2.25,0.49572697281837463,0.016500432044267654,,,,0.4958102174616435,0.009788686803121588,0.5253625879858284,0.006391135284196097,0.0008974223542778266,0.0010236119342017318
1622816676.350172,0.13439733774057472,-3.976309678599373e-06,2.9,2.25,0.5039440393447876,-0.016483405604958534,,,,0.4958102174616435,0.009788686803121588,0.5253625879858284,0.006391135284196097,0.0008974223542778266,0.0010236119342017318
1622816676.350172,0.13439733774057472,-3.976309678599373e-06,2.9,2.25,0.5039440393447876,-0.016483405604958534,,,,0.4958102174616435,0.009788686803121588,0.5253625879858284,0.006391135284196097,0.0008974223542778266,0.0010236119342017318
1622816676.350172,0.13439733774057472,-3.976309678599373e-06,2.9,2.25,0.5039440393447876,-0.016483405604958534,,,,0.4958102174616435,0.009788686803121588,0.5253625879858284,0.006391135284196097,0.0008974223542778266,0.0010236119342017318
1622816676.416172,0.13140883227927283,-4.217139499652634e-06,2.9,2.25,0.5039440393447876,-0.016483405604958534,,,,0.49638962195591896,0.008039430245508055,0.5253625879858284,0.006391135284196097,0.0010211197006441263,0.0010236119342017318
1622816676.416172,0.13140883227927283,-4.217139499652634e-06,2.93,2.25,0.5039440393447876,-0.016483405604958534,,,,0.49638962195591896,0.008039430245508055,0.5253625879858284,0.006391135284196097,0.0010211197006441263,0.0010236119342017318
1622816676.416172,0.13140883227927283,-4.217139499652634e-06,2.93,2.25,0.5039440393447876,-0.016483405604958534,,,,0.49638962195591896,0.008039430245508055,0.5253625879858284,0.006391135284196097,0.0010211197006441263,0.0010236119342017318
1622816676.416172,0.13140883227927283,-4.217139499652634e-06,2.93,2.25,0.5143409371376038,3.4906282962765545e-05,,,,0.49638962195591896,0.008039430245508055,0.5253625879858284,0.006391135284196097,0.0010211197006441263,0.0010236119342017318
1622816676.416172,0.13140883227927283,-4.217139499652634e-06,2.93,2.25,0.5143409371376038,3.4906282962765545e-05,,,,0.49638962195591896,0.008039430245508055,0.5285408631257371,0.007119471434729172,0.0010211197006441263,0.0013012875433209266
1622816676.4701722,0.12826490442065872,-3.99191050754403e-06,2.93,2.25,0.5143409371376038,3.4906282962765545e-05,,,,0.4968190087563847,0.007602596677525136,0.5285408631257371,0.007119471434729172,0.0013690885466533613,0.0013012875433209266
1622816676.4701722,0.12826490442065872,-3.99191050754403e-06,2.93,2.25,0.5143409371376038,3.4906282962765545e-05,,,,0.4968190087563847,0.007602596677525136,0.5285408631257371,0.007119471434729172,0.0013690885466533613,0.0013012875433209266
1622816676.4701722,0.12826490442065872,-3.99191050754403e-06,2.93,2.25,0.5143409371376038,3.4906282962765545e-05,,,,0.4968190087563847,0.007602596677525136,0.5285408631257371,0.007119471434729172,0.0013690885466533613,0.0013012875433209266
1622816676.4701722,0.12826490442065872,-3.99191050754403e-06,2.93,2.25,0.5143409371376038,3.4906282962765545e-05,,,,0.4968190087563847,0.007602596677525136,0.5285408631257371,0.007119471434729172,0.0013690885466533613,0.0013012875433209266
1622816676.4701722,0.12826490442065872,-3.99191050754403e-06,2.93,2.25,0.5031945109367371,0.049467239528894424,,,,0.4973902999716172,0.004255075805534515,0.5296537116819046,0.007294124457550569,0.0014370247842186521,0.0015539781735326547
1622816676.530172,0.12493376682821768,-3.1868231965244667e-06,2.93,2.25,0.5031945109367371,0.049467239528894424,,,,0.4973902999716172,0.004255075805534515,0.5296537116819046,0.007294124457550569,0.0014370247842186521,0.0015539781735326547
1622816676.530172,0.12493376682821768,-3.1868231965244667e-06,2.97,2.24,0.5031945109367371,0.049467239528894424,,,,0.4973902999716172,0.004255075805534515,0.5296537116819046,0.007294124457550569,0.0014370247842186521,0.0015539781735326547
1622816676.530172,0.12493376682821768,-3.1868231965244667e-06,2.97,2.24,0.5031945109367371,0.049467239528894424,,,,0.4973902999716172,0.004255075805534515,0.5296537116819046,0.007294124457550569,0.0014370247842186521,0.0015539781735326547
1622816676.530172,0.12493376682821768,-3.1868231965244667e-06,2.97,2.24,0.5031945109367371,0.049467239528894424,,,,0.4973902999716172,0.004255075805534515,0.5310077898848643,0.0059580357518442,0.0014370247842186521,0.0017109575389588512
1622816676.530172,0.12493376682821768,-3.1868231965244667e-06,2.97,2.24,0.5031945109367371,0.049467239528894424,,,,0.4973902999716172,0.004255075805534515,0.5310077898848643,0.0059580357518442,0.0014370247842186521,0.0017109575389588512
1622816676.602408,0.12091631948451681,-2.7816188553413336e-06,2.97,2.24,0.5057200193405151,8.794787675903137e-10,,,,0.49407896644517274,0.003945565173337481,0.5310077898848643,0.0059580357518442,0.00167977904966154,0.0017109575389588512
1622816676.602408,0.12091631948451681,-2.7816188553413336e-06,2.97,2.24,0.5057200193405151,8.794787675903137e-10,,,,0.49407896644517274,0.003945565173337481,0.5310077898848643,0.0059580357518442,0.00167977904966154,0.0017109575389588512
1622816676.602408,0.12091631948451681,-2.7816188553413336e-06,2.97,2.24,0.5057200193405151,8.794787675903137e-10,,,,0.49407896644517274,0.003945565173337481,0.5310077898848643,0.0059580357518442,0.00167977904966154,0.0017109575389588512
1622816676.602408,0.12091631948451681,-2.7816188553413336e-06,2.97,2.24,0.5057200193405151,8.794787675903137e-10,,,,0.49407896644517274,0.003945565173337481,0.532364452172409,0.005194567485165142,0.00167977904966154,0.0019095828070043942
1622816676.602408,0.12091631948451681,-2.7816188553413336e-06,2.97,2.24,0.5057200193405151,8.794787675903137e-10,,,,0.49407896644517274,0.003945565173337481,0.532364452172409,0.005194567485165142,0.00167977904966154,0.0019095828070043942
1622816676.6624079,0.11684812270433698,-2.827115279397474e-06,2.97,2.24,0.5057200193405151,8.794787675903137e-10,,,,0.4934270339946963,0.005356111697540158,0.532364452172409,0.005194567485165142,0.0012593150824564848,0.0019095828070043942
1622816676.6624079,0.11684812270433698,-2.827115279397474e-06,3.02,2.24,0.5035706162452698,0.016466377303004265,,,,0.4934270339946963,0.005356111697540158,0.532364452172409,0.005194567485165142,0.0012593150824564848,0.0019095828070043942
1622816676.6624079,0.11684812270433698,-2.827115279397474e-06,3.02,2.24,0.5035706162452698,0.016466377303004265,,,,0.4934270339946963,0.005356111697540158,0.532364452172409,0.005194567485165142,0.0012593150824564848,0.0019095828070043942
1622816676.6624079,0.11684812270433698,-2.827115279397474e-06,3.02,2.24,0.5035706162452698,0.016466377303004265,,,,0.4934270339946963,0.005356111697540158,0.5318396314061536,0.005245484234425371,0.0012593150824564848,0.0017850323302713357
1622816676.6624079,0.11684812270433698,-2.827115279397474e-06,3.02,2.24,0.5035706162452698,0.016466377303004265,,,,0.4934270339946963,0.005356111697540158,0.5318396314061536,0.005245484234425371,0.0012593150824564848,0.0017850323302713357
1622816676.6624079,0.11395274224852532,-2.8561377131308653e-06,3.02,2.24,0.5035706162452698,0.016466377303004265,,,,0.4934270339946963,0.005356111697540158,0.5318396314061536,0.005245484234425371,0.0012593150824564848,0.0017850323302713357
1622816676.6624079,0.11395274224852532,-2.8561377131308653e-06,3.02,2.24,0.5035706162452698,0.016466377303004265,,,,0.4934270339946963,0.005356111697540158,0.5318396314061536,0.005245484234425371,0.0012593150824564848,0.0017850323302713357
1622816676.6624079,0.11395274224852532,-2.8561377131308653e-06,3.02,2.24,0.49787721037864685,-3.405676761758514e-05,,,,0.4934270339946963,0.005356111697540158,0.5318396314061536,0.005245484234425371,0.0012593150824564848,0.0017850323302713357
1622816676.6624079,0.11395274224852532,-2.8561377131308653e-06,3.02,2.24,0.49787721037864685,-3.405676761758514e-05,,,,0.4934270339946963,0.005356111697540158,0.5263026670292584,0.005273764216970707,0.0012593150824564848,0.0016211926163850593
1622816676.6624079,0.11395274224852532,-2.8561377131308653e-06,3.02,2.24,0.49787721037864685,-3.405676761758514e-05,,,,0.4934270339946963,0.005356111697540158,0.5263026670292584,0.005273764216970707,0.0012593150824564848,0.0016211926163850593
1622816676.740408,0.11056622859133602,-3.6123708502608775e-06,3.02,2.24,0.49787721037864685,-3.405676761758514e-05,,,,0.4936857859585531,0.007201200550772417,0.5263026670292584,0.005273764216970707,0.0014320242732557022,0.0016211926163850593
1622816676.740408,0.11056622859133602,-3.6123708502608775e-06,3.06,2.23,0.49787721037864685,-3.405676761758514e-05,,,,0.4936857859585531,0.007201200550772417,0.5263026670292584,0.005273764216970707,0.0014320242732557022,0.0016211926163850593
1622816676.740408,0.11056622859133602,-3.6123708502608775e-06,3.06,2.23,0.5096373558044434,1.7027601643349044e-05,,,,0.4936857859585531,0.007201200550772417,0.5287194783512634,0.006115335243301499,0.0014320242732557022,0.0018400490570955987
1622816676.740408,0.11056622859133602,-3.6123708502608775e-06,3.06,2.23,0.5096373558044434,1.7027601643349044e-05,,,,0.4936857859585531,0.007201200550772417,0.5287194783512634,0.006115335243301499,0.0014320242732557022,0.0018400490570955987
1622816676.740408,0.11056622859133602,-3.6123708502608775e-06,3.06,2.23,0.5096373558044434,1.7027601643349044e-05,,,,0.4936857859585531,0.007201200550772417,0.5287194783512634,0.006115335243301499,0.0014320242732557022,0.0018400490570955987
1622816676.782408,0.10738501458192952,-4.901639220207654e-06,3.06,2.23,0.5096373558044434,1.7027601643349044e-05,,,,0.49415762501711985,0.0068607021666669205,0.5287194783512634,0.006115335243301499,0.0009378068524520905,0.0018400490570955987
1622816676.782408,0.10738501458192952,-4.901639220207654e-06,3.06,2.23,0.5096373558044434,1.7027601643349044e-05,,,,0.49415762501711985,0.0068607021666669205,0.5287194783512634,0.006115335243301499,0.0009378068524520905,0.0018400490570955987
1622816676.782408,0.10738501458192952,-4.901639220207654e-06,3.06,2.23,0.5096373558044434,1.7027601643349044e-05,,,,0.49415762501711985,0.0068607021666669205,0.5287194783512634,0.006115335243301499,0.0009378068524520905,0.0018400490570955987
1622816676.782408,0.10738501458192952,-4.901639220207654e-06,3.06,2.23,0.4939594268798828,-1.7028736692736857e-05,,,,0.49415762501711985,0.0068607021666669205,0.527290020981802,0.006362442955034111,0.0009378068524520905,0.0016066680908140884
1622816676.782408,0.10738501458192952,-4.901639220207654e-06,3.06,2.23,0.4939594268798828,-1.7028736692736857e-05,,,,0.49415762501711985,0.0068607021666669205,0.527290020981802,0.006362442955034111,0.0009378068524520905,0.0016066680908140884
1622816676.844408,0.10413008123950329,-6.100817721929882e-06,3.06,2.23,0.4939594268798828,-1.7028736692736857e-05,,,,0.4950537417383385,0.015130304173182705,0.527290020981802,0.006362442955034111,0.001066112242540201,0.0016066680908140884
1622816676.844408,0.10413008123950329,-6.100817721929882e-06,3.14,2.23,0.4939594268798828,-1.7028736692736857e-05,,,,0.4950537417383385,0.015130304173182705,0.527290020981802,0.006362442955034111,0.001066112242540201,0.0016066680908140884
1622816676.844408,0.10413008123950329,-6.100817721929882e-06,3.14,2.23,0.4939594268798828,-1.7028736692736857e-05,,,,0.4950537417383385,0.015130304173182705,0.527733578876048,0.010226131866054339,0.001066112242540201,0.0017028092839130688
1622816676.844408,0.10413008123950329,-6.100817721929882e-06,3.14,2.23,0.4939594268798828,-1.7028736692736857e-05,,,,0.4950537417383385,0.015130304173182705,0.527733578876048,0.010226131866054339,0.001066112242540201,0.0017028092839130688
1622816676.844408,0.10413008123950329,-6.100817721929882e-06,3.14,2.23,0.4856576919555664,0.03219850733876228,,,,0.4950537417383385,0.015130304173182705,0.527733578876048,0.010226131866054339,0.001066112242540201,0.0017028092839130688
1622816676.902408,0.10087565477789515,-7.364086966204465e-06,3.14,2.23,0.4856576919555664,0.03219850733876228,,,,0.4954731532523522,0.01420894827906221,0.527733578876048,0.010226131866054339,0.0010127845402678208,0.0017028092839130688
1622816676.902408,0.10087565477789515,-7.364086966204465e-06,3.14,2.23,0.4856576919555664,0.03219850733876228,,,,0.4954731532523522,0.01420894827906221,0.527733578876048,0.010226131866054339,0.0010127845402678208,0.0017028092839130688
1622816676.902408,0.10087565477789515,-7.364086966204465e-06,3.14,2.23,0.4856576919555664,0.03219850733876228,,,,0.4954731532523522,0.01420894827906221,0.5275564922431971,0.011668229735969975,0.0010127845402678208,0.0017657101703766464
1622816676.902408,0.10087565477789515,-7.364086966204465e-06,3.14,2.23,0.4856576919555664,0.03219850733876228,,,,0.4954731532523522,0.01420894827906221,0.5275564922431971,0.011668229735969975,0.0010127845402678208,0.0017657101703766464
1622816676.902408,0.10087565477789515,-7.364086966204465e-06,3.14,2.23,0.4856576919555664,0.03219850733876228,,,,0.4958391742875951,0.024827430054004083,0.5275564922431971,0.011668229735969975,0.0023459457753019844,0.0017657101703766464
1622816676.962408,0.0976200952581716,-7.702786507318903e-06,3.14,2.23,0.5078672766685486,-0.016449345275759697,,,,0.4958391742875951,0.024827430054004083,0.5275564922431971,0.011668229735969975,0.0023459457753019844,0.0017657101703766464
1622816676.962408,0.0976200952581716,-7.702786507318903e-06,3.21,2.23,0.5078672766685486,-0.016449345275759697,,,,0.4958391742875951,0.024827430054004083,0.5275564922431971,0.011668229735969975,0.0023459457753019844,0.0017657101703766464
1622816676.962408,0.0976200952581716,-7.702786507318903e-06,3.21,2.23,0.5078672766685486,-0.016449345275759697,,,,0.4958391742875951,0.024827430054004083,0.5273840825315796,0.017389974498783076,0.0023459457753019844,0.002575548651556663
1622816676.962408,0.0976200952581716,-7.702786507318903e-06,3.21,2.23,0.5078672766685486,-0.016449345275759697,,,,0.4958391742875951,0.024827430054004083,0.5273840825315796,0.017389974498783076,0.0023459457753019844,0.002575548651556663
1622816677.032408,0.09429672144412488,-7.646977559735889e-06,3.21,2.23,0.5078672766685486,-0.016449345275759697,,,,0.49657055495866775,0.011448365424681452,0.5273840825315796,0.017389974498783076,0.0021652593369740052,0.002575548651556663
1622816677.032408,0.09429672144412488,-7.646977559735889e-06,3.21,2.23,0.5078672766685486,-0.016449345275759697,,,,0.49657055495866775,0.011448365424681452,0.5278475636787953,0.014534475859016634,0.0021652593369740052,0.003027579038244991
1622816677.032408,0.09429672144412488,-7.646977559735889e-06,3.21,2.23,0.503564715385437,0.016449347138404846,,,,0.49657055495866775,0.011448365424681452,0.5278475636787953,0.014534475859016634,0.0021652593369740052,0.003027579038244991
1622816677.032408,0.09429672144412488,-7.646977559735889e-06,3.21,2.23,0.503564715385437,0.016449347138404846,,,,0.49657055495866775,0.011448365424681452,0.5278475636787953,0.014534475859016634,0.0021652593369740052,0.003027579038244991
1622816677.032408,0.09429672144412488,-7.646977559735889e-06,3.21,2.23,0.503564715385437,0.016449347138404846,,,,0.49657055495866775,0.011448365424681452,0.5278475636787953,0.014534475859016634,0.0021652593369740052,0.003027579038244991
1622816677.082408,0.09122632947194304,-7.998489081364162e-06,3.21,2.23,0.503564715385437,0.016449347138404846,,,,0.4973142512112825,0.010831539464099317,0.5278475636787953,0.014534475859016634,0.0017414492364475741,0.003027579038244991
1622816677.082408,0.09122632947194304,-7.998489081364162e-06,3.28,2.21,0.503564715385437,0.016449347138404846,,,,0.4973142512112825,0.010831539464099317,0.5278475636787953,0.014534475859016634,0.0017414492364475741,0.003027579038244991
1622816677.082408,0.09122632947194304,-7.998489081364162e-06,3.28,2.21,0.503564715385437,0.016449347138404846,,,,0.4973142512112825,0.010831539464099317,0.5266731742249852,0.013117423058454458,0.0017414492364475741,0.002818576445599884
1622816677.082408,0.09122632947194304,-7.998489081364162e-06,3.28,2.21,0.5125250220298767,-0.016895484179258347,,,,0.4973142512112825,0.010831539464099317,0.5266731742249852,0.013117423058454458,0.0017414492364475741,0.002818576445599884
1622816677.082408,0.09122632947194304,-7.998489081364162e-06,3.28,2.21,0.5125250220298767,-0.016895484179258347,,,,0.4973142512112825,0.010831539464099317,0.5266731742249852,0.013117423058454458,0.0017414492364475741,0.002818576445599884
1622816677.142408,0.08822788367321277,-8.8219267283513e-06,3.28,2.21,0.5125250220298767,-0.016895484179258347,,,,0.4979360104778787,0.0030710898955661863,0.5266731742249852,0.013117423058454458,0.0017304996837009157,0.002818576445599884
1622816677.142408,0.08822788367321277,-8.8219267283513e-06,3.28,2.21,0.5125250220298767,-0.016895484179258347,,,,0.4979360104778787,0.0030710898955661863,0.5266731742249852,0.013117423058454458,0.0017304996837009157,0.002818576445599884
1622816677.142408,0.08822788367321277,-8.8219267283513e-06,3.28,2.21,0.5125250220298767,-0.016895484179258347,,,,0.4979360104778787,0.0030710898955661863,0.5263897721064597,0.008645129099014572,0.0017304996837009157,0.0026458818543032363
1622816677.142408,0.08822788367321277,-8.8219267283513e-06,3.28,2.21,0.5125250220298767,-0.016895484179258347,,,,0.4979360104778787,0.0030710898955661863,0.5263897721064597,0.008645129099014572,0.0017304996837009157,0.0026458818543032363
1622816677.142408,0.08822788367321277,-8.8219267283513e-06,3.28,2.21,0.4978804588317871,3.405520328669809e-05,,,,0.4979360104778787,0.0030710898955661863,0.5263897721064597,0.008645129099014572,0.0017304996837009157,0.0026458818543032363
1622816677.202408,0.08528977913800026,-1.0006054977735587e-05,3.28,2.21,0.4978804588317871,3.405520328669809e-05,,,,0.4982963735399841,0.0028517123715731773,0.5263897721064597,0.008645129099014572,0.00120352285050509,0.0026458818543032363
1622816677.202408,0.08528977913800026,-1.0006054977735587e-05,3.36,2.21,0.4978804588317871,3.405520328669809e-05,,,,0.4982963735399841,0.0028517123715731773,0.5263897721064597,0.008645129099014572,0.00120352285050509,0.0026458818543032363
1622816677.202408,0.08528977913800026,-1.0006054977735587e-05,3.36,2.21,0.4978804588317871,3.405520328669809e-05,,,,0.4982963735399841,0.0028517123715731773,0.5263897721064597,0.008645129099014572,0.00120352285050509,0.0026458818543032363
1622816677.202408,0.08528977913800026,-1.0006054977735587e-05,3.36,2.21,0.4978804588317871,3.405520328669809e-05,,,,0.4982963735399841,0.0028517123715731773,0.5263897721064597,0.008645129099014572,0.00120352285050509,0.0026458818543032363
1622816677.202408,0.08528977913800026,-1.0006054977735587e-05,3.36,2.21,0.4978804588317871,3.405520328669809e-05,,,,0.4982963735399841,0.0028517123715731773,0.5263897721064597,0.008645129099014572,0.00120352285050509,0.0026458818543032363
1622816677.240408,0.0827964720983544,-1.0706287155931023e-05,3.36,2.21,0.5057123303413391,-3.405648749321699e-05,,,,0.49834816331839743,0.00824339015688512,0.5260366670653565,0.006476760921572004,0.0016289887923962678,0.0022321234409839377
1622816677.240408,0.0827964720983544,-1.0706287155931023e-05,3.36,2.21,0.5057123303413391,-3.405648749321699e-05,,,,0.49834816331839743,0.00824339015688512,0.5260366670653565,0.006476760921572004,0.0016289887923962678,0.0022321234409839377
1622816677.240408,0.0827964720983544,-1.0706287155931023e-05,3.36,2.21,0.5057123303413391,-3.405648749321699e-05,,,,0.49834816331839743,0.00824339015688512,0.5260366670653565,0.006476760921572004,0.0016289887923962678,0.0022321234409839377
1622816677.240408,0.0827964720983544,-1.0706287155931023e-05,3.36,2.21,0.5057123303413391,-3.405648749321699e-05,,,,0.49834816331839743,0.00824339015688512,0.5260366670653565,0.006476760921572004,0.0016289887923962678,0.0022321234409839377
1622816677.240408,0.0827964720983544,-1.0706287155931023e-05,3.36,2.21,0.5057123303413391,-3.405648749321699e-05,,,,0.49834816331839743,0.00824339015688512,0.5244890120165906,0.007208976558537631,0.0016289887923962678,0.00227365823283994
1622816677.262408,0.08066531654333366,-1.1834781824870884e-05,3.4,2.19,0.5074887275695801,0.016415290534496307,,,,0.4987647759358606,0.008025977090814276,0.5222234953011239,0.007458388231377033,0.0009753917576430501,0.0018819018787807596
1622816677.262408,0.08066531654333366,-1.1834781824870884e-05,3.4,2.19,0.5074887275695801,0.016415290534496307,,,,0.4987647759358606,0.008025977090814276,0.5222234953011239,0.007458388231377033,0.0009753917576430501,0.0018819018787807596
1622816677.262408,0.08066531654333366,-1.1834781824870884e-05,3.4,2.19,0.5074887275695801,0.016415290534496307,,,,0.4987647759358606,0.008025977090814276,0.5222234953011239,0.007458388231377033,0.0009753917576430501,0.0018819018787807596
1622816677.262408,0.08066531654333366,-1.1834781824870884e-05,3.4,2.19,0.5074887275695801,0.016415290534496307,,,,0.4987647759358606,0.008025977090814276,0.5222234953011239,0.007458388231377033,0.0009753917576430501,0.0018819018787807596
1622816677.262408,0.08066531654333366,-1.1834781824870884e-05,3.4,2.19,0.5074887275695801,0.016415290534496307,,,,0.4987647759358606,0.008025977090814276,0.5222234953011239,0.007458388231377033,0.0009753917576430501,0.0018819018787807596
1622816677.324408,0.07839433076434958,-1.2851662077434414e-05,3.4,2.19,0.5074887275695801,0.016415290534496307,,,,0.49914756552112377,0.01975907894402319,0.5222234953011239,0.007458388231377033,0.0014061646027700193,0.0018819018787807596
1622816677.324408,0.07839433076434958,-1.2851662077434414e-05,3.4,2.19,0.5074887275695801,0.016415290534496307,,,,0.49914756552112377,0.01975907894402319,0.5222234953011239,0.007458388231377033,0.0014061646027700193,0.0018819018787807596
1622816677.324408,0.07839433076434958,-1.2851662077434414e-05,3.4,2.19,0.4882575273513794,-0.016483401879668236,,,,0.49914756552112377,0.01975907894402319,0.5222234953011239,0.007458388231377033,0.0014061646027700193,0.0018819018787807596
1622816677.324408,0.07839433076434958,-1.2851662077434414e-05,3.4,2.19,0.4882575273513794,-0.016483401879668236,,,,0.49914756552112377,0.01975907894402319,0.5222234953011239,0.007458388231377033,0.0014061646027700193,0.0018819018787807596
1622816677.324408,0.07839433076434958,-1.2851662077434414e-05,3.4,2.19,0.4882575273513794,-0.016483401879668236,,,,0.49914756552112377,0.01975907894402319,0.5228780624689437,0.012965298344162468,0.0014061646027700193,0.0020972625557508745
1622816677.382408,0.07607048817052606,-1.3434085680441648e-05,3.4,2.19,0.4882575273513794,-0.016483401879668236,,,,0.49939577096469634,0.01856850066380679,0.5228780624689437,0.012965298344162468,0.0014578464719981583,0.0020972625557508745
1622816677.382408,0.07607048817052606,-1.3434085680441648e-05,3.46,2.2,0.4882575273513794,-0.016483401879668236,,,,0.49939577096469634,0.01856850066380679,0.5228780624689437,0.012965298344162468,0.0014578464719981583,0.0020972625557508745
1622816677.382408,0.07607048817052606,-1.3434085680441648e-05,3.46,2.2,0.4882575273513794,-0.016483401879668236,,,,0.49939577096469634,0.01856850066380679,0.5228780624689437,0.012965298344162468,0.0014578464719981583,0.0020972625557508745
1622816677.382408,0.07607048817052606,-1.3434085680441648e-05,3.46,2.2,0.49787235260009766,3.405576353543438e-05,,,,0.49939577096469634,0.01856850066380679,0.5228780624689437,0.012965298344162468,0.0014578464719981583,0.0020972625557508745
1622816677.382408,0.07607048817052606,-1.3434085680441648e-05,3.46,2.2,0.49787235260009766,3.405576353543438e-05,,,,0.49939577096469634,0.01856850066380679,0.5229801344684544,0.015045098448199602,0.0014578464719981583,0.0022956948509904943
1622816677.442408,0.07368943227855185,-1.3867147446197394e-05,3.46,2.2,0.49787235260009766,3.405576353543438e-05,,,,0.4994277456822418,0.015831898756146018,0.5229801344684544,0.015045098448199602,0.0014192551343745177,0.0022956948509904943
1622816677.442408,0.07368943227855185,-1.3867147446197394e-05,3.46,2.2,0.49787235260009766,3.405576353543438e-05,,,,0.4994277456822418,0.015831898756146018,0.5229801344684544,0.015045098448199602,0.0014192551343745177,0.0022956948509904943
1622816677.442408,0.07368943227855185,-1.3867147446197394e-05,3.46,2.2,0.49787235260009766,3.405576353543438e-05,,,,0.4994277456822418,0.015831898756146018,0.5229801344684544,0.015045098448199602,0.0014192551343745177,0.0022956948509904943
1622816677.442408,0.07368943227855185,-1.3867147446197394e-05,3.46,2.2,0.49787235260009766,3.405576353543438e-05,,,,0.4994277456822418,0.015831898756146018,0.5229801344684544,0.015045098448199602,0.0014192551343745177,0.0022956948509904943
1622816677.442408,0.07368943227855185,-1.3867147446197394e-05,3.46,2.2,0.5074842572212219,0.016449347138404846,,,,0.4994277456822418,0.015831898756146018,0.5229892797727481,0.015360690067880607,0.0014192551343745177,0.0024226156105000805
1622816677.502408,0.07129991632370643,-1.3858931281278368e-05,3.46,2.2,0.5074842572212219,0.016449347138404846,,,,0.4996072426094323,0.014853643103624917,0.5229892797727481,0.015360690067880607,0.0017532543373990335,0.0024226156105000805
1622816677.502408,0.07129991632370643,-1.3858931281278368e-05,3.52,2.18,0.5074842572212219,0.016449347138404846,,,,0.4996072426094323,0.014853643103624917,0.5229892797727481,0.015360690067880607,0.0017532543373990335,0.0024226156105000805
1622816677.502408,0.07129991632370643,-1.3858931281278368e-05,3.52,2.18,0.5074842572212219,0.016449347138404846,,,,0.4996072426094323,0.014853643103624917,0.5229892797727481,0.015360690067880607,0.0017532543373990335,0.0024226156105000805
1622816677.502408,0.07129991632370643,-1.3858931281278368e-05,3.52,2.18,0.5074842572212219,0.016449347138404846,,,,0.4996072426094323,0.014853643103624917,0.5228360967591986,0.015147780226669297,0.0017532543373990335,0.0026348513504152126
1622816677.502408,0.07129991632370643,-1.3858931281278368e-05,3.52,2.18,0.5074842572212219,0.016449347138404846,,,,0.4996072426094323,0.014853643103624917,0.5228360967591986,0.015147780226669297,0.0017532543373990335,0.0026348513504152126
1622816677.532408,0.06931840283598904,-1.4224809403464869e-05,3.52,2.18,0.5039404034614563,-0.016517460346221924,,,,0.4996166684977671,0.007836730520035752,0.5228360967591986,0.015147780226669297,0.0018365731300683998,0.0026348513504152126
1622816677.532408,0.06931840283598904,-1.4224809403464869e-05,3.52,2.18,0.5039404034614563,-0.016517460346221924,,,,0.4996166684977671,0.007836730520035752,0.5228360967591986,0.015147780226669297,0.0018365731300683998,0.0026348513504152126
