time,la_x,la_y,uwb_x,uwb_y,vel_linear_x,vel_angular_z,mpu_ang_vel_z,mpu_linear_acc_x,mpu_linear_acc_y,odom_linear_x,odom_angular_z,odom_filtered_linear_x,odom_filtered_angular_z,odom_yaw,odom_filtered_yaw
1622822041.509161,-6.794969052171218e-23,2.1097623672116297e-19,0.0,0.0,,,,,,-1.710976519964143e-21,0.0019609638587667903,-1.7056771456085628e-21,0.0017452972931063908,0.0004225968467789831,0.0019861463982543902
1622822041.509161,-6.794969052171218e-23,2.1097623672116297e-19,0.0,0.0,,,,,,-1.710976519964143e-21,0.0019609638587667903,-1.7056771456085628e-21,0.0017452972931063908,0.0004225968467789831,0.0019861463982543902
1622822041.569161,-6.79126227539473e-23,2.1097623409235122e-19,0.0,0.0,,,,,,-1.7216484863105925e-21,0.0020122870256004564,-1.708709988240562e-21,0.0017994029721636836,0.0004252820173762217,0.0020032189910235434
1622822041.569161,-6.79126227539473e-23,2.1097623409235122e-19,0.0,0.0,,,,,,-1.7216484863105925e-21,0.0020122870256004564,-1.708709988240562e-21,0.0017994029721636836,0.0004252820173762217,0.0020032189910235434
1622822041.569161,-6.79126227539473e-23,2.1097623409235122e-19,0.0,0.0,4.484599150367252e-11,-4.1717199139590377e-10,,,,-1.7216484863105925e-21,0.0020122870256004564,-1.708709988240562e-21,0.0017994029721636836,0.0004252820173762217,0.0020032189910235434
1622822041.569161,-6.79126227539473e-23,2.1097623409235122e-19,0.0,0.0,4.484599150367252e-11,-4.1717199139590377e-10,,,,-1.7216484863105925e-21,0.0020122870256004564,-1.708709988240562e-21,0.0017994029721636836,0.0004252820173762217,0.0020032189910235434
1622822041.569161,-6.79126227539473e-23,2.1097623409235122e-19,2.42,1.98,4.484599150367252e-11,-4.1717199139590377e-10,,,,-1.7216484863105925e-21,0.0020122870256004564,-1.708709988240562e-21,0.0017994029721636836,0.0004252820173762217,0.0020032189910235434
1622822041.629161,-6.70636132040334e-23,2.1097623134643992e-19,2.42,1.98,4.484599150367252e-11,-4.1717199139590377e-10,,,,-1.715389311136051e-21,0.0018853145878691326,-1.7101390575797606e-21,0.0017600690682217127,0.0004212317550544304,0.0020155181388644677
1622822041.629161,-6.70636132040334e-23,2.1097623134643992e-19,2.42,1.98,4.484599150367252e-11,-4.1717199139590377e-10,1.3414634466171265,-0.01513671875,0.00927734375,-1.715389311136051e-21,0.0018853145878691326,-1.7101390575797606e-21,0.0017600690682217127,0.0004212317550544304,0.0020155181388644677
1622822041.629161,-6.70636132040334e-23,2.1097623134643992e-19,2.42,1.98,4.484599150367252e-11,-4.1717199139590377e-10,1.3414634466171265,-0.01513671875,0.00927734375,-1.715389311136051e-21,0.0018853145878691326,-1.7101390575797606e-21,0.0017600690682217127,0.0004212317550544304,0.0020155181388644677
1622822041.629161,-6.70636132040334e-23,2.1097623134643992e-19,2.42,1.98,4.708829159927319e-11,-4.380306117823807e-10,1.3414634466171265,-0.01513671875,0.00927734375,-1.715389311136051e-21,0.0018853145878691326,-1.7101390575797606e-21,0.0017600690682217127,0.0004212317550544304,0.0020155181388644677
1622822041.629161,-6.70636132040334e-23,2.1097623134643992e-19,2.42,1.98,4.708829159927319e-11,-4.380306117823807e-10,1.3414634466171265,-0.01513671875,0.00927734375,-1.715389311136051e-21,0.0018853145878691326,-1.7101390575797606e-21,0.0017600690682217127,0.0004212317550544304,0.0020155181388644677
1622822041.6891608,-6.882143424368757e-23,2.109762281844304e-19,2.42,1.98,4.708829159927319e-11,-4.380306117823807e-10,1.3414634466171265,-0.01513671875,0.00927734375,-1.749635170651145e-21,0.002205226380953313,-1.716528477996931e-21,0.0018742356718634001,0.0004334560574831372,0.0020350017803533993
1622822041.6891608,-6.882143424368757e-23,2.109762281844304e-19,2.42,1.98,4.708829159927319e-11,-4.380306117823807e-10,1.3414634466171265,-0.01513671875,0.00927734375,-1.749635170651145e-21,0.002205226380953313,-1.716528477996931e-21,0.0018742356718634001,0.0004334560574831372,0.0020350017803533993
1622822041.6891608,-6.882143424368757e-23,2.109762281844304e-19,2.36,1.97,4.708829159927319e-11,-4.380306117823807e-10,1.3414634466171265,-0.01513671875,0.00927734375,-1.749635170651145e-21,0.002205226380953313,-1.716528477996931e-21,0.0018742356718634001,0.0004334560574831372,0.0020350017803533993
1622822041.6891608,-6.882143424368757e-23,2.109762281844304e-19,2.36,1.97,4.708829159927319e-11,-4.380306117823807e-10,1.3414634466171265,-0.01513671875,0.00927734375,-1.749635170651145e-21,0.002205226380953313,-1.716528477996931e-21,0.0018742356718634001,0.0004334560574831372,0.0020350017803533993
1622822041.6891608,-6.882143424368757e-23,2.109762281844304e-19,2.36,1.97,4.484599150367252e-11,-4.1717199139590377e-10,1.3414634466171265,-0.00439453125,-0.0009765625,-1.749635170651145e-21,0.002205226380953313,-1.716528477996931e-21,0.0018742356718634001,0.0004334560574831372,0.0020350017803533993
1622822041.749161,-7.029875114184294e-23,2.1097622492634722e-19,2.36,1.97,4.484599150367252e-11,-4.1717199139590377e-10,1.3414634466171265,-0.00439453125,-0.0009765625,-1.753500897317564e-21,0.0020654978902395946,-1.7224163958714626e-21,0.0018592392206945474,0.0004295353829173708,0.002048970776006195
1622822041.749161,-7.029875114184294e-23,2.1097622492634722e-19,2.36,1.97,4.484599150367252e-11,-4.1717199139590377e-10,1.3414634466171265,-0.00439453125,-0.0009765625,-1.753500897317564e-21,0.0020654978902395946,-1.7224163958714626e-21,0.0018592392206945474,0.0004295353829173708,0.002048970776006195
1622822041.749161,-7.029875114184294e-23,2.1097622492634722e-19,2.36,1.97,4.484599150367252e-11,-4.1717199139590377e-10,1.3414634466171265,-0.00439453125,-0.0009765625,-1.753500897317564e-21,0.0020654978902395946,-1.7224163958714626e-21,0.0018592392206945474,0.0004295353829173708,0.002048970776006195
1622822041.749161,-7.029875114184294e-23,2.1097622492634722e-19,2.36,1.97,4.484599150367252e-11,-4.1717199139590377e-10,1.3414634466171265,-0.00439453125,-0.0009765625,-1.753500897317564e-21,0.0020654978902395946,-1.7224163958714626e-21,0.0018592392206945474,0.0004295353829173708,0.002048970776006195
1622822041.749161,-7.029875114184294e-23,2.1097622492634722e-19,2.36,1.97,4.484599150367252e-11,-4.1717199139590377e-10,1.3414634466171265,-0.00439453125,-0.0009765625,-1.753500897317564e-21,0.0020654978902395946,-1.7224163958714626e-21,0.0018592392206945474,0.0004295353829173708,0.002048970776006195
1622822041.749161,-7.237956936219812e-23,2.1097622251363986e-19,2.36,1.97,4.484599150367252e-11,-4.1717199139590377e-10,1.3414634466171265,-0.00439453125,-0.0009765625,-1.760327547375257e-21,0.0022501005395504535,-1.7254799255189136e-21,0.0019588273065205054,0.0004352375861436145,0.001969177919938294
1622822041.749161,-7.237956936219812e-23,2.1097622251363986e-19,2.36,1.97,4.484599150367252e-11,-4.1717199139590377e-10,1.3414634466171265,-0.00439453125,-0.0009765625,-1.760327547375257e-21,0.0022501005395504535,-1.7254799255189136e-21,0.0019588273065205054,0.0004352375861436145,0.001969177919938294
1622822041.749161,-7.237956936219812e-23,2.1097622251363986e-19,2.36,1.97,4.484599150367252e-11,-4.1717199139590377e-10,1.3414634466171265,-0.00439453125,-0.0009765625,-1.760327547375257e-21,0.0022501005395504535,-1.7254799255189136e-21,0.0019588273065205054,0.0004352375861436145,0.001969177919938294
1622822041.749161,-7.237956936219812e-23,2.1097622251363986e-19,2.32,1.96,4.484599150367252e-11,-4.1717199139590377e-10,1.3414634466171265,-0.01318359375,0.00439453125,-1.760327547375257e-21,0.0022501005395504535,-1.7254799255189136e-21,0.0019588273065205054,0.0004352375861436145,0.001969177919938294
1622822041.749161,-7.237956936219812e-23,2.1097622251363986e-19,2.32,1.96,4.484599150367252e-11,-4.1717199139590377e-10,1.3414634466171265,-0.01318359375,0.00439453125,-1.760327547375257e-21,0.0022501005395504535,-1.7254799255189136e-21,0.0019588273065205054,0.0004352375861436145,0.001969177919938294
1622822041.8471608,-6.860114055342379e-23,2.109762197925409e-19,2.32,1.96,4.484599150367252e-11,-4.1717199139590377e-10,1.3414634466171265,-0.01318359375,0.00439453125,-1.6940094287720654e-21,0.0020607796206648203,-1.7247831370794405e-21,0.001977069316943685,0.0005103922852185106,0.0021085980941129294
1622822041.8471608,-6.860114055342379e-23,2.109762197925409e-19,2.32,1.96,4.708829159927319e-11,-4.380306117823807e-10,1.3414634466171265,-0.01318359375,0.00439453125,-1.6940094287720654e-21,0.0020607796206648203,-1.7247831370794405e-21,0.001977069316943685,0.0005103922852185106,0.0021085980941129294
1622822041.8471608,-6.860114055342379e-23,2.109762197925409e-19,2.32,1.96,4.708829159927319e-11,-4.380306117823807e-10,1.3414634466171265,-0.01318359375,0.00439453125,-1.6940094287720654e-21,0.0020607796206648203,-1.7247831370794405e-21,0.001977069316943685,0.0005103922852185106,0.0021085980941129294
1622822041.8471608,-6.860114055342379e-23,2.109762197925409e-19,2.32,1.96,4.708829159927319e-11,-4.380306117823807e-10,1.3414634466171265,-0.01318359375,0.00439453125,-1.6940094287720654e-21,0.0020607796206648203,-1.7247831370794405e-21,0.001977069316943685,0.0005103922852185106,0.0021085980941129294
1622822041.8471608,-6.860114055342379e-23,2.109762197925409e-19,2.32,1.96,4.708829159927319e-11,-4.380306117823807e-10,1.3414634466171265,-0.01318359375,0.00439453125,-1.6940094287720654e-21,0.0020607796206648203,-1.7247831370794405e-21,0.001977069316943685,0.0005103922852185106,0.0021085980941129294
1622822041.869161,-7.111743911218867e-23,2.109762169102603e-19,2.32,1.96,4.708829159927319e-11,-4.380306117823807e-10,1.3414634466171265,-0.01318359375,0.00439453125,-1.7693981907440734e-21,0.002010324001373089,-1.730034162006905e-21,0.0019395533320645131,0.0004282697360227342,0.002052563891141937
1622822041.869161,-7.111743911218867e-23,2.109762169102603e-19,2.32,1.96,4.484599150367252e-11,-4.1717199139590377e-10,1.3414634466171265,-0.01318359375,0.00439453125,-1.7693981907440734e-21,0.002010324001373089,-1.730034162006905e-21,0.0019395533320645131,0.0004282697360227342,0.002052563891141937
1622822041.869161,-7.111743911218867e-23,2.109762169102603e-19,2.32,1.96,4.484599150367252e-11,-4.1717199139590377e-10,1.3414634466171265,-0.01318359375,0.00439453125,-1.7693981907440734e-21,0.002010324001373089,-1.730034162006905e-21,0.0019395533320645131,0.0004282697360227342,0.002052563891141937
1622822041.869161,-7.111743911218867e-23,2.109762169102603e-19,2.27,2.03,4.484599150367252e-11,-4.1717199139590377e-10,1.3414634466171265,-0.01318359375,0.00439453125,-1.7693981907440734e-21,0.002010324001373089,-1.730034162006905e-21,0.0019395533320645131,0.0004282697360227342,0.002052563891141937
1622822041.869161,-7.111743911218867e-23,2.109762169102603e-19,2.27,2.03,4.484599150367252e-11,-4.1717199139590377e-10,1.4634146690368652,-0.00830078125,0.009765625,-1.7693981907440734e-21,0.002010324001373089,-1.730034162006905e-21,0.0019395533320645131,0.0004282697360227342,0.002052563891141937
1622822041.9291608,-7.260625358255634e-23,2.1097621389458022e-19,2.27,2.03,4.484599150367252e-11,-4.1717199139590377e-10,1.4634146690368652,-0.00830078125,0.009765625,-1.763285361236239e-21,0.0018834485048201891,-1.7360442089725776e-21,0.0018589352728065754,0.0004224945877826823,0.0020657994267903614
1622822041.9291608,-7.260625358255634e-23,2.1097621389458022e-19,2.27,2.03,4.484599150367252e-11,-4.1717199139590377e-10,1.4634146690368652,-0.00830078125,0.009765625,-1.763285361236239e-21,0.0018834485048201891,-1.7360442089725776e-21,0.0018589352728065754,0.0004224945877826823,0.0020657994267903614
1622822041.9291608,-7.260625358255634e-23,2.1097621389458022e-19,2.27,2.03,4.484599150367252e-11,-4.1717199139590377e-10,1.4634146690368652,-0.00830078125,0.009765625,-1.763285361236239e-21,0.0018834485048201891,-1.7360442089725776e-21,0.0018589352728065754,0.0004224945877826823,0.0020657994267903614
1622822041.9291608,-7.260625358255634e-23,2.1097621389458022e-19,2.27,2.03,4.708829159927319e-11,-4.380306117823807e-10,1.4634146690368652,-0.00830078125,0.009765625,-1.763285361236239e-21,0.0018834485048201891,-1.7360442089725776e-21,0.0018589352728065754,0.0004224945877826823,0.0020657994267903614
1622822041.9291608,-7.260625358255634e-23,2.1097621389458022e-19,2.27,2.03,4.708829159927319e-11,-4.380306117823807e-10,1.4634146690368652,-0.00830078125,0.009765625,-1.763285361236239e-21,0.0018834485048201891,-1.7360442089725776e-21,0.0018589352728065754,0.0004224945877826823,0.0020657994267903614
1622822041.9891608,-7.422821038689247e-23,2.109762106992343e-19,2.27,2.03,4.708829159927319e-11,-4.380306117823807e-10,1.4634146690368652,-0.00830078125,0.009765625,-1.7718898475236075e-21,0.0018995634973604952,-1.742395310910166e-21,0.0018061155927968002,0.0004226820922326241,0.0020747511467968213
1622822041.9891608,-7.422821038689247e-23,2.109762106992343e-19,2.27,2.03,4.708829159927319e-11,-4.380306117823807e-10,1.4634146690368652,-0.00830078125,0.009765625,-1.7718898475236075e-21,0.0018995634973604952,-1.742395310910166e-21,0.0018061155927968002,0.0004226820922326241,0.0020747511467968213
1622822041.9891608,-7.422821038689247e-23,2.109762106992343e-19,2.27,2.03,4.708829159927319e-11,-4.380306117823807e-10,1.4634146690368652,-0.00830078125,0.009765625,-1.7718898475236075e-21,0.0018995634973604952,-1.742395310910166e-21,0.0018061155927968002,0.0004226820922326241,0.0020747511467968213
1622822041.9891608,-7.422821038689247e-23,2.109762106992343e-19,2.37,2.0,4.484599150367252e-11,-4.1717199139590377e-10,1.4634146690368652,-0.00830078125,0.009765625,-1.7718898475236075e-21,0.0018995634973604952,-1.742395310910166e-21,0.0018061155927968002,0.0004226820922326241,0.0020747511467968213
1622822041.9891608,-7.422821038689247e-23,2.109762106992343e-19,2.37,2.0,4.484599150367252e-11,-4.1717199139590377e-10,1.3414634466171265,-0.0087890625,0.009765625,-1.7718898475236075e-21,0.0018995634973604952,-1.742395310910166e-21,0.0018061155927968002,0.0004226820922326241,0.0020747511467968213
1622822042.049161,-7.436082264561388e-23,2.109762075297825e-19,2.37,2.0,4.484599150367252e-11,-4.1717199139590377e-10,1.3414634466171265,-0.0087890625,0.009765625,-1.7610263224831433e-21,0.0017789808111137973,-1.7459750844677613e-21,0.0017151933929727705,0.00041729342163179285,0.0020762328259088347
1622822042.049161,-7.436082264561388e-23,2.109762075297825e-19,2.37,2.0,4.484599150367252e-11,-4.1717199139590377e-10,1.3414634466171265,-0.0087890625,0.009765625,-1.7610263224831433e-21,0.0017789808111137973,-1.7459750844677613e-21,0.0017151933929727705,0.00041729342163179285,0.0020762328259088347
1622822042.049161,-7.436082264561388e-23,2.109762075297825e-19,2.37,2.0,4.484599150367252e-11,-4.1717199139590377e-10,1.3414634466171265,-0.0087890625,0.009765625,-1.7610263224831433e-21,0.0017789808111137973,-1.7459750844677613e-21,0.0017151933929727705,0.00041729342163179285,0.0020762328259088347
1622822042.049161,-7.436082264561388e-23,2.109762075297825e-19,2.37,2.0,4.484599150367252e-11,-4.1717199139590377e-10,1.3414634466171265,-0.0087890625,0.009765625,-1.7610263224831433e-21,0.0017789808111137973,-1.7459750844677613e-21,0.0017151933929727705,0.00041729342163179285,0.0020762328259088347
1622822042.049161,-7.436082264561388e-23,2.109762075297825e-19,2.37,2.0,4.708829159927319e-11,-4.380306117823807e-10,1.3414634466171265,-0.0087890625,0.009765625,-1.7610263224831433e-21,0.0017789808111137973,-1.7459750844677613e-21,0.0017151933929727705,0.00041729342163179285,0.0020762328259088347
1622822042.055161,-7.387748886845821e-23,2.1097620522482354e-19,2.37,2.0,4.708829159927319e-11,-4.380306117823807e-10,1.3414634466171265,-0.0087890625,0.009765625,-1.7495848831267578e-21,0.001744264594207593,-1.7446131072574103e-21,0.001681317270559801,0.0004270367110175921,0.0020041482080874963
1622822042.055161,-7.387748886845821e-23,2.1097620522482354e-19,2.37,2.0,4.708829159927319e-11,-4.380306117823807e-10,1.3414634466171265,-0.0087890625,0.009765625,-1.7495848831267578e-21,0.001744264594207593,-1.7446131072574103e-21,0.001681317270559801,0.0004270367110175921,0.0020041482080874963
1622822042.055161,-7.387748886845821e-23,2.1097620522482354e-19,2.33,2.0,4.708829159927319e-11,-4.380306117823807e-10,1.3414634466171265,-0.0087890625,0.009765625,-1.7495848831267578e-21,0.001744264594207593,-1.7446131072574103e-21,0.001681317270559801,0.0004270367110175921,0.0020041482080874963
1622822042.055161,-7.387748886845821e-23,2.1097620522482354e-19,2.33,2.0,4.708829159927319e-11,-4.380306117823807e-10,1.3414634466171265,-0.01123046875,0.00244140625,-1.7495848831267578e-21,0.001744264594207593,-1.7446131072574103e-21,0.001681317270559801,0.0004270367110175921,0.0020041482080874963
1622822042.055161,-7.387748886845821e-23,2.1097620522482354e-19,2.33,2.0,4.708829159927319e-11,-4.380306117823807e-10,1.3414634466171265,-0.01123046875,0.00244140625,-1.7495848831267578e-21,0.001744264594207593,-1.7446131072574103e-21,0.001681317270559801,0.0004270367110175921,0.0020041482080874963
1622822042.1391609,-6.863247114992785e-23,2.1097620275805285e-19,2.33,2.0,4.708829159927319e-11,-4.380306117823807e-10,1.3414634466171265,-0.01123046875,0.00244140625,-1.6937437066627685e-21,0.0016624648335746505,-1.7401421542439236e-21,0.0016377966208199204,0.00046277265854835834,0.0020830222949954433
1622822042.1391609,-6.863247114992785e-23,2.1097620275805285e-19,2.33,2.0,4.708829159927319e-11,-4.380306117823807e-10,1.3414634466171265,-0.01123046875,0.00244140625,-1.6937437066627685e-21,0.0016624648335746505,-1.7401421542439236e-21,0.0016377966208199204,0.00046277265854835834,0.0020830222949954433
1622822042.1391609,-6.863247114992785e-23,2.1097620275805285e-19,2.33,2.0,4.708829159927319e-11,-4.380306117823807e-10,1.3414634466171265,-0.01123046875,0.00244140625,-1.6937437066627685e-21,0.0016624648335746505,-1.7401421542439236e-21,0.0016377966208199204,0.00046277265854835834,0.0020830222949954433
1622822042.1391609,-6.863247114992785e-23,2.1097620275805285e-19,2.33,2.0,4.708829159927319e-11,-4.380306117823807e-10,1.3414634466171265,-0.01123046875,0.00244140625,-1.6937437066627685e-21,0.0016624648335746505,-1.7401421542439236e-21,0.0016377966208199204,0.00046277265854835834,0.0020830222949954433
1622822042.1391609,-6.863247114992785e-23,2.1097620275805285e-19,2.33,2.0,4.708829159927319e-11,-4.380306117823807e-10,1.3414634466171265,-0.01123046875,0.00244140625,-1.7374471893432527e-21,0.0016085267045538047,-1.7401421542439236e-21,0.0016377966208199204,0.00040921319930775055,0.0020830222949954433
1622822042.1691608,-6.741007692085743e-23,2.109762002421513e-19,2.33,2.0,4.708829159927319e-11,-4.380306117823807e-10,1.3414634466171265,-0.01123046875,0.00244140625,-1.7374471893432527e-21,0.0016085267045538047,-1.738790066146382e-21,0.001575988079351317,0.00040921319930775055,0.00203150766238215
1622822042.1691608,-6.741007692085743e-23,2.109762002421513e-19,2.33,2.0,4.484599150367252e-11,-4.1717199139590377e-10,1.3414634466171265,-0.01123046875,0.00244140625,-1.7374471893432527e-21,0.0016085267045538047,-1.738790066146382e-21,0.001575988079351317,0.00040921319930775055,0.00203150766238215
1622822042.1691608,-6.741007692085743e-23,2.109762002421513e-19,2.33,2.0,4.484599150367252e-11,-4.1717199139590377e-10,1.3414634466171265,-0.01123046875,0.00244140625,-1.7374471893432527e-21,0.0016085267045538047,-1.738790066146382e-21,0.001575988079351317,0.00040921319930775055,0.00203150766238215
1622822042.1691608,-6.741007692085743e-23,2.109762002421513e-19,2.4,1.97,4.484599150367252e-11,-4.1717199139590377e-10,1.3414634466171265,-0.0107421875,0.0078125,-1.7374471893432527e-21,0.0016085267045538047,-1.738790066146382e-21,0.001575988079351317,0.00040921319930775055,0.00203150766238215
1622822042.1691608,-6.741007692085743e-23,2.109762002421513e-19,2.4,1.97,4.484599150367252e-11,-4.1717199139590377e-10,1.3414634466171265,-0.0107421875,0.0078125,-1.7023496573108158e-21,0.0018066706774226896,-1.738790066146382e-21,0.001575988079351317,0.00043837638481021644,0.00203150766238215
1622822042.243161,-6.309912135654281e-23,2.1097619763357584e-19,2.4,1.97,4.484599150367252e-11,-4.1717199139590377e-10,1.3414634466171265,-0.0107421875,0.0078125,-1.7023496573108158e-21,0.0018066706774226896,-1.7347353578805698e-21,0.0016374091641895008,0.00043837638481021644,0.0020754873079887803
1622822042.243161,-6.309912135654281e-23,2.1097619763357584e-19,2.4,1.97,4.484599150367252e-11,-4.1717199139590377e-10,1.3414634466171265,-0.0107421875,0.0078125,-1.7023496573108158e-21,0.0018066706774226896,-1.7347353578805698e-21,0.0016374091641895008,0.00043837638481021644,0.0020754873079887803
1622822042.243161,-6.309912135654281e-23,2.1097619763357584e-19,2.4,1.97,4.9566621640462216e-11,-4.610848369779319e-10,1.3414634466171265,-0.0107421875,0.0078125,-1.7023496573108158e-21,0.0018066706774226896,-1.7347353578805698e-21,0.0016374091641895008,0.00043837638481021644,0.0020754873079887803
1622822042.243161,-6.309912135654281e-23,2.1097619763357584e-19,2.4,1.97,4.9566621640462216e-11,-4.610848369779319e-10,1.3414634466171265,-0.0107421875,0.0078125,-1.7023496573108158e-21,0.0018066706774226896,-1.7347353578805698e-21,0.0016374091641895008,0.00043837638481021644,0.0020754873079887803
1622822042.243161,-6.309912135654281e-23,2.1097619763357584e-19,2.4,1.97,4.9566621640462216e-11,-4.610848369779319e-10,1.3414634466171265,-0.0107421875,0.0078125,-1.71858420621177e-21,0.001718781161817122,-1.7347353578805698e-21,0.0016374091641895008,0.00041203966824794537,0.0020754873079887803
1622822042.289161,-6.053434862041974e-23,2.1097619500706326e-19,2.4,1.97,4.9566621640462216e-11,-4.610848369779319e-10,1.3414634466171265,-0.0107421875,0.0078125,-1.71858420621177e-21,0.001718781161817122,-1.731645048962093e-21,0.001606432510746069,0.00041203966824794537,0.002049686893325573
1622822042.289161,-6.053434862041974e-23,2.1097619500706326e-19,2.4,1.97,4.9566621640462216e-11,-4.610848369779319e-10,1.3414634466171265,-0.0107421875,0.0078125,-1.71858420621177e-21,0.001718781161817122,-1.731645048962093e-21,0.001606432510746069,0.00041203966824794537,0.002049686893325573
1622822042.289161,-6.053434862041974e-23,2.1097619500706326e-19,2.4,1.97,4.9566621640462216e-11,-4.610848369779319e-10,1.3414634466171265,-0.0107421875,0.0078125,-1.71858420621177e-21,0.001718781161817122,-1.731645048962093e-21,0.001606432510746069,0.00041203966824794537,0.002049686893325573
1622822042.289161,-6.053434862041974e-23,2.1097619500706326e-19,2.34,1.95,4.484599150367252e-11,-4.1717199139590377e-10,1.3414634466171265,-0.0078125,0.01171875,-1.71858420621177e-21,0.001718781161817122,-1.731645048962093e-21,0.001606432510746069,0.00041203966824794537,0.002049686893325573
1622822042.289161,-6.053434862041974e-23,2.1097619500706326e-19,2.34,1.95,4.484599150367252e-11,-4.1717199139590377e-10,1.3414634466171265,-0.0078125,0.01171875,-1.699990508226189e-21,0.001609679431412674,-1.731645048962093e-21,0.001606432510746069,0.00040818823828757416,0.002049686893325573
1622822042.349161,-5.652210895977448e-23,2.1097619242509557e-19,2.34,1.95,4.484599150367252e-11,-4.1717199139590377e-10,1.3414634466171265,-0.0078125,0.01171875,-1.699990508226189e-21,0.001609679431412674,-1.7265049152594513e-21,0.0015339361233948734,0.00040818823828757416,0.0020419371362964856
1622822042.349161,-5.652210895977448e-23,2.1097619242509557e-19,2.34,1.95,4.484599150367252e-11,-4.1717199139590377e-10,1.3414634466171265,-0.0078125,0.01171875,-1.699990508226189e-21,0.001609679431412674,-1.7265049152594513e-21,0.0015339361233948734,0.00040818823828757416,0.0020419371362964856
1622822042.349161,-5.652210895977448e-23,2.1097619242509557e-19,2.34,1.95,4.484599150367252e-11,-4.1717199139590377e-10,1.3414634466171265,-0.0078125,0.01171875,-1.699990508226189e-21,0.001609679431412674,-1.7265049152594513e-21,0.0015339361233948734,0.00040818823828757416,0.0020419371362964856
1622822042.349161,-5.652210895977448e-23,2.1097619242509557e-19,2.34,1.95,4.484599150367252e-11,-4.1717199139590377e-10,1.3414634466171265,-0.0078125,0.01171875,-1.699990508226189e-21,0.001609679431412674,-1.7265049152594513e-21,0.0015339361233948734,0.00040818823828757416,0.0020419371362964856
1622822042.349161,-5.652210895977448e-23,2.1097619242509557e-19,2.34,1.95,4.708829159927319e-11,-4.380306117823807e-10,1.3414634466171265,-0.0078125,0.01171875,-1.7100784353233662e-21,0.0018770243763749591,-1.7265049152594513e-21,0.0015339361233948734,0.0004164046302808152,0.0020419371362964856
1622822042.349161,-5.458064345303281e-23,2.1097619049097185e-19,2.34,1.95,4.708829159927319e-11,-4.380306117823807e-10,1.3414634466171265,-0.0078125,0.01171875,-1.7100784353233662e-21,0.0018770243763749591,-1.7218555948618733e-21,0.00160972737163658,0.0004164046302808152,0.0019586496166402894
1622822042.349161,-5.458064345303281e-23,2.1097619049097185e-19,2.34,1.95,4.708829159927319e-11,-4.380306117823807e-10,1.3414634466171265,-0.0078125,0.01171875,-1.7100784353233662e-21,0.0018770243763749591,-1.7218555948618733e-21,0.00160972737163658,0.0004164046302808152,0.0019586496166402894
1622822042.349161,-5.458064345303281e-23,2.1097619049097185e-19,2.34,1.95,4.708829159927319e-11,-4.380306117823807e-10,1.3414634466171265,-0.0078125,0.01171875,-1.7100784353233662e-21,0.0018770243763749591,-1.7218555948618733e-21,0.00160972737163658,0.0004164046302808152,0.0019586496166402894
1622822042.349161,-5.458064345303281e-23,2.1097619049097185e-19,2.3,2.02,4.708829159927319e-11,-4.380306117823807e-10,1.3414634466171265,-0.0078125,0.01171875,-1.7100784353233662e-21,0.0018770243763749591,-1.7218555948618733e-21,0.00160972737163658,0.0004164046302808152,0.0019586496166402894
1622822042.349161,-5.458064345303281e-23,2.1097619049097185e-19,2.3,2.02,4.708829159927319e-11,-4.380306117823807e-10,1.2804877758026123,-0.0107421875,0.00390625,-1.694273018501166e-21,0.001759149008152106,-1.7218555948618733e-21,0.00160972737163658,0.0004140368557333986,0.0019586496166402894
1622822042.4091609,-5.124853744110012e-23,2.1097618843767077e-19,2.3,2.02,4.708829159927319e-11,-4.380306117823807e-10,1.2804877758026123,-0.0107421875,0.00390625,-1.694273018501166e-21,0.001759149008152106,-1.717812422177723e-21,0.0016077613333101474,0.0004140368557333986,0.0019662155938508434
1622822042.4091609,-5.124853744110012e-23,2.1097618843767077e-19,2.3,2.02,4.708829159927319e-11,-4.380306117823807e-10,1.2804877758026123,-0.0107421875,0.00390625,-1.694273018501166e-21,0.001759149008152106,-1.717812422177723e-21,0.0016077613333101474,0.0004140368557333986,0.0019662155938508434
1622822042.4091609,-5.124853744110012e-23,2.1097618843767077e-19,2.3,2.02,4.708829159927319e-11,-4.380306117823807e-10,1.2804877758026123,-0.0107421875,0.00390625,-1.694273018501166e-21,0.001759149008152106,-1.717812422177723e-21,0.0016077613333101474,0.0004140368557333986,0.0019662155938508434
1622822042.4091609,-5.124853744110012e-23,2.1097618843767077e-19,2.3,2.02,4.708829159927319e-11,-4.380306117823807e-10,1.2804877758026123,-0.0107421875,0.00390625,-1.694273018501166e-21,0.001759149008152106,-1.717812422177723e-21,0.0016077613333101474,0.0004140368557333986,0.0019662155938508434
1622822042.4091609,-5.124853744110012e-23,2.1097618843767077e-19,2.3,2.02,4.708829159927319e-11,-4.380306117823807e-10,1.2804877758026123,-0.0107421875,0.00390625,-1.694273018501166e-21,0.001759149008152106,-1.717812422177723e-21,0.0016077613333101474,0.0004140368557333986,0.0019662155938508434
1622822042.4691608,-4.883100145313679e-23,2.1097618606764502e-19,2.3,2.02,4.708829159927319e-11,-4.380306117823807e-10,1.2804877758026123,-0.0107421875,0.00390625,-1.7035314502231764e-21,0.0019009193567420682,-1.7153302587792357e-21,0.0016719004563385963,0.0004194439531675957,0.001977340641793333
1622822042.4691608,-4.883100145313679e-23,2.1097618606764502e-19,2.3,2.02,4.484599150367252e-11,-4.1717199139590377e-10,1.2804877758026123,-0.0107421875,0.00390625,-1.7035314502231764e-21,0.0019009193567420682,-1.7153302587792357e-21,0.0016719004563385963,0.0004194439531675957,0.001977340641793333
1622822042.4691608,-4.883100145313679e-23,2.1097618606764502e-19,2.38,2.0,4.484599150367252e-11,-4.1717199139590377e-10,1.2804877758026123,-0.0107421875,0.00390625,-1.7035314502231764e-21,0.0019009193567420682,-1.7153302587792357e-21,0.0016719004563385963,0.0004194439531675957,0.001977340641793333
1622822042.4691608,-4.883100145313679e-23,2.1097618606764502e-19,2.38,2.0,4.484599150367252e-11,-4.1717199139590377e-10,1.2804877758026123,-0.0107421875,0.00390625,-1.7035314502231764e-21,0.0019009193567420682,-1.7153302587792357e-21,0.0016719004563385963,0.0004194439531675957,0.001977340641793333
1622822042.4691608,-4.883100145313679e-23,2.1097618606764502e-19,2.38,2.0,4.484599150367252e-11,-4.1717199139590377e-10,1.402438998222351,-0.01220703125,0.0068359375,-1.6939286416558944e-21,0.0017808844769899431,-1.7153302587792357e-21,0.0016719004563385963,0.0004159317948695463,0.001977340641793333
1622822042.529161,-4.5706941388171e-23,2.109761836020951e-19,2.38,2.0,4.484599150367252e-11,-4.1717199139590377e-10,1.402438998222351,-0.01220703125,0.0068359375,-1.6939286416558944e-21,0.0017808844769899431,-1.7113012820558733e-21,0.0016406209989591244,0.0004159317948695463,0.0019843917505820846
1622822042.529161,-4.5706941388171e-23,2.109761836020951e-19,2.38,2.0,4.484599150367252e-11,-4.1717199139590377e-10,1.402438998222351,-0.01220703125,0.0068359375,-1.6939286416558944e-21,0.0017808844769899431,-1.7113012820558733e-21,0.0016406209989591244,0.0004159317948695463,0.0019843917505820846
1622822042.529161,-4.5706941388171e-23,2.109761836020951e-19,2.38,2.0,4.708829159927319e-11,-4.380306117823807e-10,1.402438998222351,-0.01220703125,0.0068359375,-1.6939286416558944e-21,0.0017808844769899431,-1.7113012820558733e-21,0.0016406209989591244,0.0004159317948695463,0.0019843917505820846
1622822042.529161,-4.5706941388171e-23,2.109761836020951e-19,2.38,2.0,4.708829159927319e-11,-4.380306117823807e-10,1.402438998222351,-0.01220703125,0.0068359375,-1.6939286416558944e-21,0.0017808844769899431,-1.7113012820558733e-21,0.0016406209989591244,0.0004159317948695463,0.0019843917505820846
1622822042.529161,-4.5706941388171e-23,2.109761836020951e-19,2.38,2.0,4.708829159927319e-11,-4.380306117823807e-10,1.402438998222351,-0.01220703125,0.0068359375,-1.712354043008274e-21,0.0019436235280584423,-1.7113012820558733e-21,0.0016406209989591244,0.0004225692861612049,0.0019843917505820846
1622822042.589161,-4.4366903870661983e-23,2.1097618085247768e-19,2.38,2.0,4.708829159927319e-11,-4.380306117823807e-10,1.402438998222351,-0.01220703125,0.0068359375,-1.712354043008274e-21,0.0019436235280584423,-1.710497038051148e-21,0.0016938900000901239,0.0004225692861612049,0.0019941727550871957
1622822042.589161,-4.4366903870661983e-23,2.1097618085247768e-19,2.38,2.0,4.708829159927319e-11,-4.380306117823807e-10,1.402438998222351,-0.01220703125,0.0068359375,-1.712354043008274e-21,0.0019436235280584423,-1.710497038051148e-21,0.0016938900000901239,0.0004225692861612049,0.0019941727550871957
1622822042.589161,-4.4366903870661983e-23,2.1097618085247768e-19,2.45,1.96,4.708829159927319e-11,-4.380306117823807e-10,1.402438998222351,-0.01220703125,0.0068359375,-1.712354043008274e-21,0.0019436235280584423,-1.710497038051148e-21,0.0016938900000901239,0.0004225692861612049,0.0019941727550871957
1622822042.589161,-4.4366903870661983e-23,2.1097618085247768e-19,2.45,1.96,4.484599150367252e-11,-4.1717199139590377e-10,1.402438998222351,-0.009765625,-0.00048828125,-1.712354043008274e-21,0.0019436235280584423,-1.710497038051148e-21,0.0016938900000901239,0.0004225692861612049,0.0019941727550871957
1622822042.6491609,-4.2547377369139815e-23,2.109761780711362e-19,2.45,1.96,4.484599150367252e-11,-4.1717199139590377e-10,1.402438998222351,-0.009765625,-0.00048828125,-1.707013251551002e-21,0.0018203130977271895,-1.70863763477331e-21,0.001656130366804621,0.0004183281844124314,0.0019980495857944147
1622822042.6491609,-4.2547377369139815e-23,2.109761780711362e-19,2.45,1.96,4.484599150367252e-11,-4.1717199139590377e-10,1.402438998222351,-0.009765625,-0.00048828125,-1.707013251551002e-21,0.0018203130977271895,-1.70863763477331e-21,0.001656130366804621,0.0004183281844124314,0.0019980495857944147
1622822042.6491609,-4.2547377369139815e-23,2.109761780711362e-19,2.45,1.96,4.484599150367252e-11,-4.1717199139590377e-10,1.402438998222351,-0.009765625,-0.00048828125,-1.707013251551002e-21,0.0018203130977271895,-1.70863763477331e-21,0.001656130366804621,0.0004183281844124314,0.0019980495857944147
1622822042.6491609,-4.2547377369139815e-23,2.109761780711362e-19,2.45,1.96,4.484599150367252e-11,-4.1717199139590377e-10,1.402438998222351,-0.009765625,-0.00048828125,-1.707013251551002e-21,0.0018203130977271895,-1.70863763477331e-21,0.001656130366804621,0.0004183281844124314,0.0019980495857944147
1622822042.6491609,-4.2547377369139815e-23,2.109761780711362e-19,2.45,1.96,4.484599150367252e-11,-4.1717199139590377e-10,1.402438998222351,-0.009765625,-0.00048828125,-1.707013251551002e-21,0.0018203130977271895,-1.70863763477331e-21,0.001656130366804621,0.0004183281844124314,0.0019980495857944147
1622822042.6491609,-4.2547377369139815e-23,2.109761780711362e-19,2.45,1.96,4.708829159927319e-11,-4.380306117823807e-10,1.402438998222351,-0.009765625,-0.00048828125,-1.7145068839120074e-21,0.0020208098008901096,-1.70863763477331e-21,0.001656130366804621,0.0004245392206443224,0.0019980495857944147
1622822042.6491609,-4.2252045924952055e-23,2.1097617600075638e-19,2.45,1.96,4.708829159927319e-11,-4.380306117823807e-10,1.402438998222351,-0.009765625,-0.00048828125,-1.7145068839120074e-21,0.0020208098008901096,-1.7071824623360343e-21,0.0017463479693710017,0.0004245392206443224,0.001919923658925139
1622822042.6491609,-4.2252045924952055e-23,2.1097617600075638e-19,2.45,1.96,4.708829159927319e-11,-4.380306117823807e-10,1.402438998222351,-0.009765625,-0.00048828125,-1.7145068839120074e-21,0.0020208098008901096,-1.7071824623360343e-21,0.0017463479693710017,0.0004245392206443224,0.001919923658925139
1622822042.6491609,-4.2252045924952055e-23,2.1097617600075638e-19,2.38,1.95,4.708829159927319e-11,-4.380306117823807e-10,1.402438998222351,-0.009765625,-0.00048828125,-1.7145068839120074e-21,0.0020208098008901096,-1.7071824623360343e-21,0.0017463479693710017,0.0004245392206443224,0.001919923658925139
1622822042.6491609,-4.2252045924952055e-23,2.1097617600075638e-19,2.38,1.95,4.708829159927319e-11,-4.380306117823807e-10,1.402438998222351,-0.00537109375,0.0048828125,-1.7145068839120074e-21,0.0020208098008901096,-1.7071824623360343e-21,0.0017463479693710017,0.0004245392206443224,0.001919923658925139
1622822042.743161,-3.677809369375486e-23,2.1097617371101288e-19,2.38,1.95,4.708829159927319e-11,-4.380306117823807e-10,1.402438998222351,-0.00537109375,0.0048828125,-1.6521945636561745e-21,0.0019334722473394917,-1.700137769324876e-21,0.001804960178249026,0.000489004536577698,0.002033689363424295
1622822042.743161,-3.677809369375486e-23,2.1097617371101288e-19,2.38,1.95,4.708829159927319e-11,-4.380306117823807e-10,1.402438998222351,-0.00537109375,0.0048828125,-1.6521945636561745e-21,0.0019334722473394917,-1.700137769324876e-21,0.001804960178249026,0.000489004536577698,0.002033689363424295
1622822042.743161,-3.677809369375486e-23,2.1097617371101288e-19,2.38,1.95,4.708829159927319e-11,-4.380306117823807e-10,1.402438998222351,-0.00537109375,0.0048828125,-1.6521945636561745e-21,0.0019334722473394917,-1.700137769324876e-21,0.001804960178249026,0.000489004536577698,0.002033689363424295
1622822042.743161,-3.677809369375486e-23,2.1097617371101288e-19,2.38,1.95,4.708829159927319e-11,-4.380306117823807e-10,1.402438998222351,-0.00537109375,0.0048828125,-1.6521945636561745e-21,0.0019334722473394917,-1.700137769324876e-21,0.001804960178249026,0.000489004536577698,0.002033689363424295
1622822042.743161,-3.677809369375486e-23,2.1097617371101288e-19,2.38,1.95,4.708829159927319e-11,-4.380306117823807e-10,1.402438998222351,-0.00537109375,0.0048828125,-1.6521945636561745e-21,0.0019334722473394917,-1.700137769324876e-21,0.001804960178249026,0.000489004536577698,0.002033689363424295
1622822042.769161,-3.697706666571561e-23,2.109761712533666e-19,2.38,1.95,4.708829159927319e-11,-4.380306117823807e-10,1.402438998222351,-0.00537109375,0.0048828125,-1.7151257569437383e-21,0.0018784038743800313,-1.700445857764753e-21,0.001781968954096001,0.0004209375349976375,0.001985976398326711
1622822042.769161,-3.697706666571561e-23,2.109761712533666e-19,2.38,1.95,4.708829159927319e-11,-4.380306117823807e-10,1.402438998222351,-0.00537109375,0.0048828125,-1.7151257569437383e-21,0.0018784038743800313,-1.700445857764753e-21,0.001781968954096001,0.0004209375349976375,0.001985976398326711
1622822042.769161,-3.697706666571561e-23,2.109761712533666e-19,2.38,1.95,4.484599150367252e-11,-4.1717199139590377e-10,1.402438998222351,-0.00537109375,0.0048828125,-1.7151257569437383e-21,0.0018784038743800313,-1.700445857764753e-21,0.001781968954096001,0.0004209375349976375,0.001985976398326711
1622822042.769161,-3.697706666571561e-23,2.109761712533666e-19,2.32,1.93,4.484599150367252e-11,-4.1717199139590377e-10,1.402438998222351,-0.005859375,0.005859375,-1.7151257569437383e-21,0.0018784038743800313,-1.700445857764753e-21,0.001781968954096001,0.0004209375349976375,0.001985976398326711
1622822042.769161,-3.697706666571561e-23,2.109761712533666e-19,2.32,1.93,4.484599150367252e-11,-4.1717199139590377e-10,1.402438998222351,-0.005859375,0.005859375,-1.7151257569437383e-21,0.0018784038743800313,-1.700445857764753e-21,0.001781968954096001,0.0004209375349976375,0.001985976398326711
1622822042.8471608,-3.455694548139857e-23,2.1097616861745347e-19,2.32,1.93,4.484599150367252e-11,-4.1717199139590377e-10,1.402438998222351,-0.005859375,0.005859375,-1.6841165094920187e-21,0.0019723852992499513,-1.697949941572409e-21,0.001827902840037479,0.00045809362499923685,0.002057310847301711
1622822042.8471608,-3.455694548139857e-23,2.1097616861745347e-19,2.32,1.93,4.484599150367252e-11,-4.1717199139590377e-10,1.402438998222351,-0.005859375,0.005859375,-1.6841165094920187e-21,0.0019723852992499513,-1.697949941572409e-21,0.001827902840037479,0.00045809362499923685,0.002057310847301711
1622822042.8471608,-3.455694548139857e-23,2.1097616861745347e-19,2.32,1.93,4.708829159927319e-11,-4.380306117823807e-10,1.402438998222351,-0.005859375,0.005859375,-1.6841165094920187e-21,0.0019723852992499513,-1.697949941572409e-21,0.001827902840037479,0.00045809362499923685,0.002057310847301711
1622822042.8471608,-3.455694548139857e-23,2.1097616861745347e-19,2.32,1.93,4.708829159927319e-11,-4.380306117823807e-10,1.402438998222351,-0.005859375,0.005859375,-1.6841165094920187e-21,0.0019723852992499513,-1.697949941572409e-21,0.001827902840037479,0.00045809362499923685,0.002057310847301711
1622822042.8471608,-3.455694548139857e-23,2.1097616861745347e-19,2.32,1.93,4.708829159927319e-11,-4.380306117823807e-10,1.402438998222351,-0.005859375,0.005859375,-1.6841165094920187e-21,0.0019723852992499513,-1.697949941572409e-21,0.001827902840037479,0.00045809362499923685,0.002057310847301711
1622822042.8891609,-3.5258665066791e-23,2.1097616588561913e-19,2.32,1.93,4.708829159927319e-11,-4.380306117823807e-10,1.402438998222351,-0.005859375,0.005859375,-1.719491191463313e-21,0.0018841733089489175,-1.6996474275600024e-21,0.0017886367749752852,0.0004206900044764703,0.0020335229424932625
1622822042.8891609,-3.5258665066791e-23,2.1097616588561913e-19,2.32,1.93,4.708829159927319e-11,-4.380306117823807e-10,1.402438998222351,-0.005859375,0.005859375,-1.719491191463313e-21,0.0018841733089489175,-1.6996474275600024e-21,0.0017886367749752852,0.0004206900044764703,0.0020335229424932625
1622822042.8891609,-3.5258665066791e-23,2.1097616588561913e-19,2.32,1.93,4.708829159927319e-11,-4.380306117823807e-10,1.402438998222351,-0.005859375,0.005859375,-1.719491191463313e-21,0.0018841733089489175,-1.6996474275600024e-21,0.0017886367749752852,0.0004206900044764703,0.0020335229424932625
1622822042.8891609,-3.5258665066791e-23,2.1097616588561913e-19,2.27,2.01,4.484599150367252e-11,-4.1717199139590377e-10,1.402438998222351,-0.005859375,0.005859375,-1.719491191463313e-21,0.0018841733089489175,-1.6996474275600024e-21,0.0017886367749752852,0.0004206900044764703,0.0020335229424932625
1622822042.8891609,-3.5258665066791e-23,2.1097616588561913e-19,2.27,2.01,4.484599150367252e-11,-4.1717199139590377e-10,1.402438998222351,-0.005859375,0.005859375,-1.719491191463313e-21,0.0018841733089489175,-1.6996474275600024e-21,0.0017886367749752852,0.0004206900044764703,0.0020335229424932625
1622822042.9491608,-3.501590989115087e-23,2.109761631413755e-19,2.27,2.01,4.484599150367252e-11,-4.1717199139590377e-10,1.3414634466171265,-0.0126953125,0.00048828125,-1.71059574953783e-21,0.0017645142584640874,-1.7001824645978366e-21,0.0017078871282168243,0.00041604033392457956,0.0020365930272820743
1622822042.9491608,-3.501590989115087e-23,2.109761631413755e-19,2.27,2.01,4.484599150367252e-11,-4.1717199139590377e-10,1.3414634466171265,-0.0126953125,0.00048828125,-1.71059574953783e-21,0.0017645142584640874,-1.7001824645978366e-21,0.0017078871282168243,0.00041604033392457956,0.0020365930272820743
1622822042.9491608,-3.501590989115087e-23,2.109761631413755e-19,2.27,2.01,4.484599150367252e-11,-4.1717199139590377e-10,1.3414634466171265,-0.0126953125,0.00048828125,-1.71059574953783e-21,0.0017645142584640874,-1.7001824645978366e-21,0.0017078871282168243,0.00041604033392457956,0.0020365930272820743
1622822042.9491608,-3.501590989115087e-23,2.109761631413755e-19,2.27,2.01,4.484599150367252e-11,-4.1717199139590377e-10,1.3414634466171265,-0.0126953125,0.00048828125,-1.71059574953783e-21,0.0017645142584640874,-1.7001824645978366e-21,0.0017078871282168243,0.00041604033392457956,0.0020365930272820743
1622822042.9491608,-3.501590989115087e-23,2.109761631413755e-19,2.27,2.01,4.484599150367252e-11,-4.1717199139590377e-10,1.3414634466171265,-0.0126953125,0.00048828125,-1.71059574953783e-21,0.0017645142584640874,-1.7001824645978366e-21,0.0017078871282168243,0.00041604033392457956,0.0020365930272820743
1622822042.951161,-3.53016756640091e-23,2.1097616110851748e-19,2.27,2.01,4.708829159927319e-11,-4.380306117823807e-10,1.3414634466171265,-0.0126953125,0.00048828125,-1.7139643275243452e-21,0.001942256291210372,-1.699880016597069e-21,0.0017479905919058555,0.0004254823696794222,0.00195817837841303
1622822042.951161,-3.53016756640091e-23,2.1097616110851748e-19,2.27,2.01,4.708829159927319e-11,-4.380306117823807e-10,1.3414634466171265,-0.0126953125,0.00048828125,-1.7139643275243452e-21,0.001942256291210372,-1.699880016597069e-21,0.0017479905919058555,0.0004254823696794222,0.00195817837841303
1622822042.951161,-3.53016756640091e-23,2.1097616110851748e-19,2.27,2.01,4.708829159927319e-11,-4.380306117823807e-10,1.3414634466171265,-0.0126953125,0.00048828125,-1.7139643275243452e-21,0.001942256291210372,-1.699880016597069e-21,0.0017479905919058555,0.0004254823696794222,0.00195817837841303
1622822042.951161,-3.53016756640091e-23,2.1097616110851748e-19,2.24,1.98,4.708829159927319e-11,-4.380306117823807e-10,1.3414634466171265,-0.0126953125,0.00048828125,-1.7139643275243452e-21,0.001942256291210372,-1.699880016597069e-21,0.0017479905919058555,0.0004254823696794222,0.00195817837841303
1622822042.951161,-3.53016756640091e-23,2.1097616110851748e-19,2.24,1.98,4.708829159927319e-11,-4.380306117823807e-10,1.2804877758026123,-0.00390625,0.00048828125,-1.7139643275243452e-21,0.001942256291210372,-1.699880016597069e-21,0.0017479905919058555,0.0004254823696794222,0.00195817837841303
1622822043.009161,-3.489862854943607e-23,2.1097615892572754e-19,2.24,1.98,4.708829159927319e-11,-4.380306117823807e-10,1.2804877758026123,-0.00390625,0.00048828125,-1.7081867040801158e-21,0.001824076133062253,-1.7001630869424605e-21,0.0017208852019984363,0.000418114359543066,0.001968712813216314
1622822043.009161,-3.489862854943607e-23,2.1097615892572754e-19,2.24,1.98,4.708829159927319e-11,-4.380306117823807e-10,1.2804877758026123,-0.00390625,0.00048828125,-1.7081867040801158e-21,0.001824076133062253,-1.7001630869424605e-21,0.0017208852019984363,0.000418114359543066,0.001968712813216314
1622822043.009161,-3.489862854943607e-23,2.1097615892572754e-19,2.24,1.98,4.708829159927319e-11,-4.380306117823807e-10,1.2804877758026123,-0.00390625,0.00048828125,-1.7081867040801158e-21,0.001824076133062253,-1.7001630869424605e-21,0.0017208852019984363,0.000418114359543066,0.001968712813216314
1622822043.009161,-3.489862854943607e-23,2.1097615892572754e-19,2.24,1.98,4.708829159927319e-11,-4.380306117823807e-10,1.2804877758026123,-0.00390625,0.00048828125,-1.7081867040801158e-21,0.001824076133062253,-1.7001630869424605e-21,0.0017208852019984363,0.000418114359543066,0.001968712813216314
1622822043.009161,-3.489862854943607e-23,2.1097615892572754e-19,2.24,1.98,4.708829159927319e-11,-4.380306117823807e-10,1.2804877758026123,-0.00390625,0.00048828125,-1.7081867040801158e-21,0.001824076133062253,-1.7001630869424605e-21,0.0017208852019984363,0.000418114359543066,0.001968712813216314
1622822043.069161,-3.585753571112887e-23,2.1097615637875996e-19,2.24,1.98,4.708829159927319e-11,-4.380306117823807e-10,1.2804877758026123,-0.00390625,0.00048828125,-1.727130394927111e-21,0.0020631846430606243,-1.7031154326920132e-21,0.0018068682630894713,0.00042605190636660063,0.0019875068232355145
1622822043.069161,-3.585753571112887e-23,2.1097615637875996e-19,2.24,1.98,4.484599150367252e-11,-4.1717199139590377e-10,1.2804877758026123,-0.00390625,0.00048828125,-1.727130394927111e-21,0.0020631846430606243,-1.7031154326920132e-21,0.0018068682630894713,0.00042605190636660063,0.0019875068232355145
1622822043.069161,-3.585753571112887e-23,2.1097615637875996e-19,2.24,1.98,4.484599150367252e-11,-4.1717199139590377e-10,1.2804877758026123,-0.00390625,0.00048828125,-1.727130394927111e-21,0.0020631846430606243,-1.7031154326920132e-21,0.0018068682630894713,0.00042605190636660063,0.0019875068232355145
1622822043.069161,-3.585753571112887e-23,2.1097615637875996e-19,2.34,1.95,4.484599150367252e-11,-4.1717199139590377e-10,1.402438998222351,0.00244140625,0.005859375,-1.727130394927111e-21,0.0020631846430606243,-1.7031154326920132e-21,0.0018068682630894713,0.00042605190636660063,0.0019875068232355145
1622822043.069161,-3.585753571112887e-23,2.1097615637875996e-19,2.34,1.95,4.484599150367252e-11,-4.1717199139590377e-10,1.402438998222351,0.00244140625,0.005859375,-1.727130394927111e-21,0.0020631846430606243,-1.7031154326920132e-21,0.0018068682630894713,0.00042605190636660063,0.0019875068232355145
1622822043.1454,-3.46839646858912e-23,2.1097615363221038e-19,2.34,1.95,4.484599150367252e-11,-4.1717199139590377e-10,1.402438998222351,0.00244140625,0.005859375,-1.7018825082408905e-21,0.0020782682608468574,-1.7028618767221775e-21,0.0018927987781372322,0.00046141600483314905,0.0020601993429616742
1622822043.1454,-3.46839646858912e-23,2.1097615363221038e-19,2.34,1.95,4.484599150367252e-11,-4.1717199139590377e-10,1.402438998222351,0.00244140625,0.005859375,-1.7018825082408905e-21,0.0020782682608468574,-1.7028618767221775e-21,0.0018927987781372322,0.00046141600483314905,0.0020601993429616742
1622822043.1454,-3.46839646858912e-23,2.1097615363221038e-19,2.34,1.95,4.708829159927319e-11,-4.380306117823807e-10,1.402438998222351,0.00244140625,0.005859375,-1.7018825082408905e-21,0.0020782682608468574,-1.7028618767221775e-21,0.0018927987781372322,0.00046141600483314905,0.0020601993429616742
1622822043.1454,-3.46839646858912e-23,2.1097615363221038e-19,2.34,1.95,4.708829159927319e-11,-4.380306117823807e-10,1.402438998222351,0.00244140625,0.005859375,-1.7018825082408905e-21,0.0020782682608468574,-1.7028618767221775e-21,0.0018927987781372322,0.00046141600483314905,0.0020601993429616742
1622822043.1454,-3.46839646858912e-23,2.1097615363221038e-19,2.34,1.95,4.708829159927319e-11,-4.380306117823807e-10,1.402438998222351,0.00244140625,0.005859375,-1.7018825082408905e-21,0.0020782682608468574,-1.7028618767221775e-21,0.0018927987781372322,0.00046141600483314905,0.0020601993429616742
1622822043.1954,-3.644741595023626e-23,2.109761506757573e-19,2.34,1.95,4.708829159927319e-11,-4.380306117823807e-10,1.402438998222351,0.00244140625,0.005859375,-1.7373942523189836e-21,0.0019684770129194755,-1.7028618767221775e-21,0.0018927987781372322,0.00042739548473935056,0.0020601993429616742
1622822043.1954,-3.644741595023626e-23,2.109761506757573e-19,2.34,1.95,4.708829159927319e-11,-4.380306117823807e-10,1.402438998222351,0.00244140625,0.005859375,-1.7373942523189836e-21,0.0019684770129194755,-1.7068840103996174e-21,0.0018562129893707716,0.00042739548473935056,0.0020561082441752335
1622822043.1954,-3.644741595023626e-23,2.109761506757573e-19,2.41,1.94,4.484599150367252e-11,-4.1717199139590377e-10,1.402438998222351,0.00244140625,0.005859375,-1.7373942523189836e-21,0.0019684770129194755,-1.7068840103996174e-21,0.0018562129893707716,0.00042739548473935056,0.0020561082441752335
1622822043.1954,-3.644741595023626e-23,2.109761506757573e-19,2.41,1.94,4.484599150367252e-11,-4.1717199139590377e-10,1.402438998222351,0.00244140625,0.005859375,-1.7373942523189836e-21,0.0019684770129194755,-1.7068840103996174e-21,0.0018562129893707716,0.00042739548473935056,0.0020561082441752335
1622822043.1954,-3.644741595023626e-23,2.109761506757573e-19,2.41,1.94,4.484599150367252e-11,-4.1717199139590377e-10,1.402438998222351,-0.00732421875,0.00390625,-1.7373942523189836e-21,0.0019684770129194755,-1.7068840103996174e-21,0.0018562129893707716,0.00042739548473935056,0.0020561082441752335
1622822043.2554,-3.760573811783454e-23,2.109761476966676e-19,2.41,1.94,4.484599150367252e-11,-4.1717199139590377e-10,1.402438998222351,-0.00732421875,0.00390625,-1.7349849785841426e-21,0.0018434807030275214,-1.710153326875507e-21,0.001773629484843536,0.00042049811289243086,0.0020616842195322906
1622822043.2554,-3.760573811783454e-23,2.109761476966676e-19,2.41,1.94,4.484599150367252e-11,-4.1717199139590377e-10,1.402438998222351,-0.00732421875,0.00390625,-1.7349849785841426e-21,0.0018434807030275214,-1.710153326875507e-21,0.001773629484843536,0.00042049811289243086,0.0020616842195322906
1622822043.2554,-3.760573811783454e-23,2.109761476966676e-19,2.41,1.94,4.484599150367252e-11,-4.1717199139590377e-10,1.402438998222351,-0.00732421875,0.00390625,-1.7349849785841426e-21,0.0018434807030275214,-1.710153326875507e-21,0.001773629484843536,0.00042049811289243086,0.0020616842195322906
1622822043.2554,-3.760573811783454e-23,2.109761476966676e-19,2.41,1.94,4.484599150367252e-11,-4.1717199139590377e-10,1.402438998222351,-0.00732421875,0.00390625,-1.7349849785841426e-21,0.0018434807030275214,-1.710153326875507e-21,0.001773629484843536,0.00042049811289243086,0.0020616842195322906
1622822043.2554,-3.760573811783454e-23,2.109761476966676e-19,2.41,1.94,4.708829159927319e-11,-4.380306117823807e-10,1.402438998222351,-0.00732421875,0.00390625,-1.7349849785841426e-21,0.0018434807030275214,-1.710153326875507e-21,0.001773629484843536,0.00042049811289243086,0.0020616842195322906
1622822043.2554,-3.8979126196831444e-23,2.109761455228404e-19,2.41,1.94,4.708829159927319e-11,-4.380306117823807e-10,1.402438998222351,-0.00732421875,0.00390625,-1.7392038758914405e-21,0.0019557819227543917,-1.7118038639933e-21,0.0017918368197137131,0.00042393382659189544,0.0019740645681497605
1622822043.2554,-3.8979126196831444e-23,2.109761455228404e-19,2.41,1.94,4.708829159927319e-11,-4.380306117823807e-10,1.402438998222351,-0.00732421875,0.00390625,-1.7392038758914405e-21,0.0019557819227543917,-1.7118038639933e-21,0.0017918368197137131,0.00042393382659189544,0.0019740645681497605
1622822043.2554,-3.8979126196831444e-23,2.109761455228404e-19,2.36,2.01,4.708829159927319e-11,-4.380306117823807e-10,1.402438998222351,-0.00732421875,0.00390625,-1.7392038758914405e-21,0.0019557819227543917,-1.7118038639933e-21,0.0017918368197137131,0.00042393382659189544,0.0019740645681497605
1622822043.2554,-3.8979126196831444e-23,2.109761455228404e-19,2.36,2.01,4.708829159927319e-11,-4.380306117823807e-10,1.3414634466171265,-0.0048828125,0.01318359375,-1.7392038758914405e-21,0.0019557819227543917,-1.7118038639933e-21,0.0017918368197137131,0.00042393382659189544,0.0019740645681497605
1622822043.2554,-3.8979126196831444e-23,2.109761455228404e-19,2.36,2.01,4.708829159927319e-11,-4.380306117823807e-10,1.3414634466171265,-0.0048828125,0.01318359375,-1.7392038758914405e-21,0.0019557819227543917,-1.7118038639933e-21,0.0017918368197137131,0.00042393382659189544,0.0019740645681497605
1622822043.3534,-3.4620369228648746e-23,2.1097614312368571e-19,2.36,2.01,4.484599150367252e-11,-4.1717199139590377e-10,1.3414634466171265,-0.0048828125,0.01318359375,-1.6705399383544167e-21,0.0019764763900590333,-1.7067158060130694e-21,0.001848532965725106,0.000498506795496858,0.0020989301680485344
1622822043.3534,-3.4620369228648746e-23,2.1097614312368571e-19,2.36,2.01,4.484599150367252e-11,-4.1717199139590377e-10,1.3414634466171265,-0.0048828125,0.01318359375,-1.6705399383544167e-21,0.0019764763900590333,-1.7067158060130694e-21,0.001848532965725106,0.000498506795496858,0.0020989301680485344
1622822043.3534,-3.4620369228648746e-23,2.1097614312368571e-19,2.36,2.01,4.484599150367252e-11,-4.1717199139590377e-10,1.3414634466171265,-0.0048828125,0.01318359375,-1.6705399383544167e-21,0.0019764763900590333,-1.7067158060130694e-21,0.001848532965725106,0.000498506795496858,0.0020989301680485344
1622822043.3534,-3.4620369228648746e-23,2.1097614312368571e-19,2.36,2.01,4.484599150367252e-11,-4.1717199139590377e-10,1.3414634466171265,-0.0048828125,0.01318359375,-1.6705399383544167e-21,0.0019764763900590333,-1.7067158060130694e-21,0.001848532965725106,0.000498506795496858,0.0020989301680485344
1622822043.3534,-3.4620369228648746e-23,2.1097614312368571e-19,2.36,2.01,4.484599150367252e-11,-4.1717199139590377e-10,1.3414634466171265,-0.0048828125,0.01318359375,-1.741346488474009e-21,0.0019279457121378777,-1.7067158060130694e-21,0.001848532965725106,0.0004222469227724283,0.0020989301680485344
1622822043.3754,-3.637638260837112e-23,2.1097614057403652e-19,2.36,2.01,4.484599150367252e-11,-4.1717199139590377e-10,1.3414634466171265,-0.0048828125,0.01318359375,-1.741346488474009e-21,0.0019279457121378777,-1.7097546114614487e-21,0.0018262230066387983,0.0004222469227724283,0.0020405514114376876
1622822043.3754,-3.637638260837112e-23,2.1097614057403652e-19,2.36,2.01,4.484599150367252e-11,-4.1717199139590377e-10,1.3414634466171265,-0.0048828125,0.01318359375,-1.741346488474009e-21,0.0019279457121378777,-1.7097546114614487e-21,0.0018262230066387983,0.0004222469227724283,0.0020405514114376876
1622822043.3754,-3.637638260837112e-23,2.1097614057403652e-19,2.31,2.0,4.484599150367252e-11,-4.1717199139590377e-10,1.3414634466171265,-0.0048828125,0.01318359375,-1.741346488474009e-21,0.0019279457121378777,-1.7097546114614487e-21,0.0018262230066387983,0.0004222469227724283,0.0020405514114376876
1622822043.3754,-3.637638260837112e-23,2.1097614057403652e-19,2.31,2.0,4.484599150367252e-11,-4.1717199139590377e-10,1.3414634466171265,-0.0048828125,0.01318359375,-1.741346488474009e-21,0.0019279457121378777,-1.7097546114614487e-21,0.0018262230066387983,0.0004222469227724283,0.0020405514114376876
1622822043.3754,-3.637638260837112e-23,2.1097614057403652e-19,2.31,2.0,4.484599150367252e-11,-4.1717199139590377e-10,1.3414634466171265,-0.0087890625,0.005859375,-1.741346488474009e-21,0.0019279457121378777,-1.7097546114614487e-21,0.0018262230066387983,0.0004222469227724283,0.0020405514114376876
1622822043.4354,-3.719093494589091e-23,2.1097613791143437e-19,2.31,2.0,4.484599150367252e-11,-4.1717199139590377e-10,1.3414634466171265,-0.0087890625,0.005859375,-1.7333521420204887e-21,0.0018061006078230425,-1.7123823491942358e-21,0.001756765368296466,0.000417817371514139,0.0020476289598368625
1622822043.4354,-3.719093494589091e-23,2.1097613791143437e-19,2.31,2.0,4.484599150367252e-11,-4.1717199139590377e-10,1.3414634466171265,-0.0087890625,0.005859375,-1.7333521420204887e-21,0.0018061006078230425,-1.7123823491942358e-21,0.001756765368296466,0.000417817371514139,0.0020476289598368625
1622822043.4354,-3.719093494589091e-23,2.1097613791143437e-19,2.31,2.0,4.708829159927319e-11,-4.380306117823807e-10,1.3414634466171265,-0.0087890625,0.005859375,-1.7333521420204887e-21,0.0018061006078230425,-1.7123823491942358e-21,0.001756765368296466,0.000417817371514139,0.0020476289598368625
1622822043.4354,-3.719093494589091e-23,2.1097613791143437e-19,2.31,2.0,4.708829159927319e-11,-4.380306117823807e-10,1.3414634466171265,-0.0087890625,0.005859375,-1.7333521420204887e-21,0.0018061006078230425,-1.7123823491942358e-21,0.001756765368296466,0.000417817371514139,0.0020476289598368625
1622822043.4354,-3.719093494589091e-23,2.1097613791143437e-19,2.31,2.0,4.708829159927319e-11,-4.380306117823807e-10,1.3414634466171265,-0.0087890625,0.005859375,-1.7333521420204887e-21,0.0018061006078230425,-1.7123823491942358e-21,0.001756765368296466,0.000417817371514139,0.0020476289598368625
1622822043.4954,-3.8294748825972707e-23,2.1097613507459874e-19,2.31,2.0,4.708829159927319e-11,-4.380306117823807e-10,1.3414634466171265,-0.0087890625,0.005859375,-1.7404106602315952e-21,0.0018209805377103457,-1.7156112805255204e-21,0.0017128416775653785,0.00041849345170838617,0.002051349264727244
1622822043.4954,-3.8294748825972707e-23,2.1097613507459874e-19,2.31,2.0,4.708829159927319e-11,-4.380306117823807e-10,1.3414634466171265,-0.0087890625,0.005859375,-1.7404106602315952e-21,0.0018209805377103457,-1.7156112805255204e-21,0.0017128416775653785,0.00041849345170838617,0.002051349264727244
1622822043.4954,-3.8294748825972707e-23,2.1097613507459874e-19,2.27,1.98,4.708829159927319e-11,-4.380306117823807e-10,1.3414634466171265,-0.0087890625,0.005859375,-1.7404106602315952e-21,0.0018209805377103457,-1.7156112805255204e-21,0.0017128416775653785,0.00041849345170838617,0.002051349264727244
1622822043.4954,-3.8294748825972707e-23,2.1097613507459874e-19,2.27,1.98,4.484599150367252e-11,-4.1717199139590377e-10,1.3414634466171265,-0.0087890625,0.005859375,-1.7404106602315952e-21,0.0018209805377103457,-1.7156112805255204e-21,0.0017128416775653785,0.00041849345170838617,0.002051349264727244
1622822043.4954,-3.8294748825972707e-23,2.1097613507459874e-19,2.27,1.98,4.484599150367252e-11,-4.1717199139590377e-10,1.402438998222351,-0.0078125,0.0087890625,-1.7286745105637976e-21,0.0017053078178691494,-1.7156112805255204e-21,0.0017128416775653785,0.00041352251660784146,0.002051349264727244
1622822043.5554001,-3.808242083595712e-23,2.1097613225734293e-19,2.27,1.98,4.484599150367252e-11,-4.1717199139590377e-10,1.402438998222351,-0.0078125,0.0087890625,-1.7286745105637976e-21,0.0017053078178691494,-1.7163666416195106e-21,0.0016286333400512526,0.00041352251660784146,0.0020482835684572397
1622822043.5554001,-3.808242083595712e-23,2.1097613225734293e-19,2.27,1.98,4.484599150367252e-11,-4.1717199139590377e-10,1.402438998222351,-0.0078125,0.0087890625,-1.7286745105637976e-21,0.0017053078178691494,-1.7163666416195106e-21,0.0016286333400512526,0.00041352251660784146,0.0020482835684572397
1622822043.5554001,-3.808242083595712e-23,2.1097613225734293e-19,2.27,1.98,4.484599150367252e-11,-4.1717199139590377e-10,1.402438998222351,-0.0078125,0.0087890625,-1.7286745105637976e-21,0.0017053078178691494,-1.7163666416195106e-21,0.0016286333400512526,0.00041352251660784146,0.0020482835684572397
1622822043.5554001,-3.808242083595712e-23,2.1097613225734293e-19,2.27,1.98,4.484599150367252e-11,-4.1717199139590377e-10,1.402438998222351,-0.0078125,0.0087890625,-1.7286745105637976e-21,0.0017053078178691494,-1.7163666416195106e-21,0.0016286333400512526,0.00041352251660784146,0.0020482835684572397
1622822043.5554001,-3.808242083595712e-23,2.1097613225734293e-19,2.27,1.98,4.708829159927319e-11,-4.380306117823807e-10,1.402438998222351,-0.0078125,0.0087890625,-1.7313016266361204e-21,0.0020420253055546136,-1.7163666416195106e-21,0.0016286333400512526,0.00043625671491054834,0.0020482835684572397
1622822043.5614002,-3.844162704528739e-23,2.1097613012886722e-19,2.27,1.98,4.708829159927319e-11,-4.380306117823807e-10,1.402438998222351,-0.0078125,0.0087890625,-1.7313016266361204e-21,0.0020420253055546136,-1.7164434452253812e-21,0.0017352802094553865,0.00043625671491054834,0.0019864262574531837
1622822043.5614002,-3.844162704528739e-23,2.1097613012886722e-19,2.27,1.98,4.708829159927319e-11,-4.380306117823807e-10,1.402438998222351,-0.0078125,0.0087890625,-1.7313016266361204e-21,0.0020420253055546136,-1.7164434452253812e-21,0.0017352802094553865,0.00043625671491054834,0.0019864262574531837
1622822043.5614002,-3.844162704528739e-23,2.1097613012886722e-19,2.27,1.98,4.708829159927319e-11,-4.380306117823807e-10,1.402438998222351,-0.0078125,0.0087890625,-1.7313016266361204e-21,0.0020420253055546136,-1.7164434452253812e-21,0.0017352802094553865,0.00043625671491054834,0.0019864262574531837
1622822043.5614002,-3.844162704528739e-23,2.1097613012886722e-19,2.25,1.96,4.708829159927319e-11,-4.380306117823807e-10,1.402438998222351,-0.0078125,0.0087890625,-1.7313016266361204e-21,0.0020420253055546136,-1.7164434452253812e-21,0.0017352802094553865,0.00043625671491054834,0.0019864262574531837
1622822043.5614002,-3.844162704528739e-23,2.1097613012886722e-19,2.25,1.96,4.708829159927319e-11,-4.380306117823807e-10,1.3414634466171265,-0.00439453125,0.005859375,-1.7313016266361204e-21,0.0020420253055546136,-1.7164434452253812e-21,0.0017352802094553865,0.00043625671491054834,0.0019864262574531837
1622822043.6154,-3.904872945818265e-23,2.1097612781741925e-19,2.25,1.96,4.484599150367252e-11,-4.1717199139590377e-10,1.3414634466171265,-0.00439453125,0.005859375,-1.739754698899965e-21,0.0019259710899808163,-1.7164434452253812e-21,0.0017352802094553865,0.00042203570604771505,0.0019864262574531837
1622822043.6154,-3.904872945818265e-23,2.1097612781741925e-19,2.25,1.96,4.484599150367252e-11,-4.1717199139590377e-10,1.3414634466171265,-0.00439453125,0.005859375,-1.739754698899965e-21,0.0019259710899808163,-1.7164434452253812e-21,0.0017352802094553865,0.00042203570604771505,0.0019864262574531837
1622822043.6154,-3.904872945818265e-23,2.1097612781741925e-19,2.25,1.96,4.484599150367252e-11,-4.1717199139590377e-10,1.3414634466171265,-0.00439453125,0.005859375,-1.739754698899965e-21,0.0019259710899808163,-1.718668106445303e-21,0.0017432564803015287,0.00042203570604771505,0.001989792961836015
1622822043.6154,-3.904872945818265e-23,2.1097612781741925e-19,2.25,1.96,4.484599150367252e-11,-4.1717199139590377e-10,1.3414634466171265,-0.00439453125,0.005859375,-1.739754698899965e-21,0.0019259710899808163,-1.718668106445303e-21,0.0017432564803015287,0.00042203570604771505,0.001989792961836015
1622822043.6154,-3.904872945818265e-23,2.1097612781741925e-19,2.25,1.96,4.484599150367252e-11,-4.1717199139590377e-10,1.3414634466171265,-0.00439453125,0.005859375,-1.739754698899965e-21,0.0019259710899808163,-1.718668106445303e-21,0.0017432564803015287,0.00042203570604771505,0.001989792961836015
1622822043.6754,-4.0081426321237624e-23,2.10976125230644e-19,2.25,1.96,4.484599150367252e-11,-4.1717199139590377e-10,1.3414634466171265,-0.00439453125,0.005859375,-1.745852485336869e-21,0.0018298186590836576,-1.718668106445303e-21,0.0017432564803015287,0.00041935089729399234,0.001989792961836015
1622822043.6754,-4.0081426321237624e-23,2.10976125230644e-19,2.25,1.96,4.484599150367252e-11,-4.1717199139590377e-10,1.3414634466171265,-0.00439453125,0.005859375,-1.745852485336869e-21,0.0018298186590836576,-1.718668106445303e-21,0.0017432564803015287,0.00041935089729399234,0.001989792961836015
1622822043.6754,-4.0081426321237624e-23,2.10976125230644e-19,2.22,2.02,4.484599150367252e-11,-4.1717199139590377e-10,1.3414634466171265,-0.00439453125,0.005859375,-1.745852485336869e-21,0.0018298186590836576,-1.718668106445303e-21,0.0017432564803015287,0.00041935089729399234,0.001989792961836015
1622822043.6754,-4.0081426321237624e-23,2.10976125230644e-19,2.22,2.02,4.484599150367252e-11,-4.1717199139590377e-10,1.2195122241973877,-0.0107421875,0.00244140625,-1.745852485336869e-21,0.0018298186590836576,-1.7219327087887226e-21,0.001719249989521417,0.00041935089729399234,0.002000401942796231
1622822043.6754,-4.0081426321237624e-23,2.10976125230644e-19,2.22,2.02,4.484599150367252e-11,-4.1717199139590377e-10,1.2195122241973877,-0.0107421875,0.00244140625,-1.745852485336869e-21,0.0018298186590836576,-1.7219327087887226e-21,0.001719249989521417,0.00041935089729399234,0.002000401942796231
1622822043.7354,-3.9999481493215764e-23,2.109761225751803e-19,2.22,2.02,4.484599150367252e-11,-4.1717199139590377e-10,1.2195122241973877,-0.0107421875,0.00244140625,-1.7356626094253653e-21,0.001714408513254538,-1.7219327087887226e-21,0.001719249989521417,0.00041415005176604594,0.002000401942796231
1622822043.7354,-3.9999481493215764e-23,2.109761225751803e-19,2.22,2.02,4.484599150367252e-11,-4.1717199139590377e-10,1.2195122241973877,-0.0107421875,0.00244140625,-1.7356626094253653e-21,0.001714408513254538,-1.7219327087887226e-21,0.001719249989521417,0.00041415005176604594,0.002000401942796231
1622822043.7354,-3.9999481493215764e-23,2.109761225751803e-19,2.22,2.02,4.708829159927319e-11,-4.380306117823807e-10,1.2195122241973877,-0.0107421875,0.00244140625,-1.7356626094253653e-21,0.001714408513254538,-1.7231008152770126e-21,0.0016466882515277419,0.00041415005176604594,0.0020046709070045254
1622822043.7354,-3.9999481493215764e-23,2.109761225751803e-19,2.22,2.02,4.708829159927319e-11,-4.380306117823807e-10,1.2195122241973877,-0.0107421875,0.00244140625,-1.7356626094253653e-21,0.001714408513254538,-1.7231008152770126e-21,0.0016466882515277419,0.00041415005176604594,0.0020046709070045254
1622822043.7354,-3.9999481493215764e-23,2.109761225751803e-19,2.22,2.02,4.708829159927319e-11,-4.380306117823807e-10,1.2195122241973877,-0.0107421875,0.00244140625,-1.7356626094253653e-21,0.001714408513254538,-1.7231008152770126e-21,0.0016466882515277419,0.00041415005176604594,0.0020046709070045254
1622822043.7954001,-4.0704887884520425e-23,2.1097611974166285e-19,2.22,2.02,4.708829159927319e-11,-4.380306117823807e-10,1.2195122241973877,-0.0107421875,0.00244140625,-1.748139470181496e-21,0.0018867433634726257,-1.7231008152770126e-21,0.0016466882515277419,0.0004204990779914369,0.0020046709070045254
1622822043.7954001,-4.0704887884520425e-23,2.1097611974166285e-19,2.22,2.02,4.708829159927319e-11,-4.380306117823807e-10,1.2195122241973877,-0.0107421875,0.00244140625,-1.748139470181496e-21,0.0018867433634726257,-1.7257924107039787e-21,0.0016708780149968334,0.0004204990779914369,0.002010287543777807
1622822043.7954001,-4.0704887884520425e-23,2.1097611974166285e-19,2.2,2.08,4.708829159927319e-11,-4.380306117823807e-10,1.2195122241973877,-0.0107421875,0.00244140625,-1.748139470181496e-21,0.0018867433634726257,-1.7257924107039787e-21,0.0016708780149968334,0.0004204990779914369,0.002010287543777807
1622822043.7954001,-4.0704887884520425e-23,2.1097611974166285e-19,2.2,2.08,4.484599150367252e-11,-4.1717199139590377e-10,1.3414634466171265,-0.009765625,0.0068359375,-1.748139470181496e-21,0.0018867433634726257,-1.7257924107039787e-21,0.0016708780149968334,0.0004204990779914369,0.002010287543777807
1622822043.7954001,-4.0704887884520425e-23,2.1097611974166285e-19,2.2,2.08,4.484599150367252e-11,-4.1717199139590377e-10,1.3414634466171265,-0.009765625,0.0068359375,-1.748139470181496e-21,0.0018867433634726257,-1.7257924107039787e-21,0.0016708780149968334,0.0004204990779914369,0.002010287543777807
1622822043.7954001,-4.147786191936826e-23,2.1097611767870263e-19,2.2,2.08,4.484599150367252e-11,-4.1717199139590377e-10,1.3414634466171265,-0.009765625,0.0068359375,-1.748139470181496e-21,0.0018867433634726257,-1.7257924107039787e-21,0.0016708780149968334,0.0004204990779914369,0.002010287543777807
1622822043.7954001,-4.147786191936826e-23,2.1097611767870263e-19,2.2,2.08,4.484599150367252e-11,-4.1717199139590377e-10,1.3414634466171265,-0.009765625,0.0068359375,-1.748139470181496e-21,0.0018867433634726257,-1.7263211741615163e-21,0.0016865415587647293,0.0004204990779914369,0.0019264764028733194
1622822043.7954001,-4.147786191936826e-23,2.1097611767870263e-19,2.2,2.08,4.484599150367252e-11,-4.1717199139590377e-10,1.3414634466171265,-0.009765625,0.0068359375,-1.748139470181496e-21,0.0018867433634726257,-1.7263211741615163e-21,0.0016865415587647293,0.0004204990779914369,0.0019264764028733194
1622822043.7954001,-4.147786191936826e-23,2.1097611767870263e-19,2.2,2.08,4.484599150367252e-11,-4.1717199139590377e-10,1.3414634466171265,-0.009765625,0.0068359375,-1.748139470181496e-21,0.0018867433634726257,-1.7263211741615163e-21,0.0016865415587647293,0.0004204990779914369,0.0019264764028733194
1622822043.7954001,-4.147786191936826e-23,2.1097611767870263e-19,2.2,2.08,4.708829159927319e-11,-4.380306117823807e-10,1.3414634466171265,-0.009765625,0.0068359375,-1.760261231090197e-21,0.0020973091892572495,-1.7263211741615163e-21,0.0016865415587647293,0.00042642656060526635,0.0019264764028733194
1622822043.8554,-4.290502445154573e-23,2.1097611529793734e-19,2.2,2.08,4.708829159927319e-11,-4.380306117823807e-10,1.3414634466171265,-0.009765625,0.0068359375,-1.760261231090197e-21,0.0020973091892572495,-1.7263211741615163e-21,0.0016865415587647293,0.00042642656060526635,0.0019264764028733194
1622822043.8554,-4.290502445154573e-23,2.1097611529793734e-19,2.2,2.08,4.708829159927319e-11,-4.380306117823807e-10,1.3414634466171265,-0.009765625,0.0068359375,-1.760261231090197e-21,0.0020973091892572495,-1.7263211741615163e-21,0.0016865415587647293,0.00042642656060526635,0.0019264764028733194
1622822043.8554,-4.290502445154573e-23,2.1097611529793734e-19,2.3,2.05,4.708829159927319e-11,-4.380306117823807e-10,1.3414634466171265,-0.009765625,0.0068359375,-1.760261231090197e-21,0.0020973091892572495,-1.7263211741615163e-21,0.0016865415587647293,0.00042642656060526635,0.0019264764028733194
1622822043.8554,-4.290502445154573e-23,2.1097611529793734e-19,2.3,2.05,4.708829159927319e-11,-4.380306117823807e-10,1.3414634466171265,-0.00830078125,-0.00634765625,-1.760261231090197e-21,0.0020973091892572495,-1.7263211741615163e-21,0.0016865415587647293,0.00042642656060526635,0.0019264764028733194
1622822043.9154,-4.3511835774560175e-23,2.1097611277201842e-19,2.3,2.05,4.484599150367252e-11,-4.1717199139590377e-10,1.3414634466171265,-0.00830078125,-0.00634765625,-1.754141775485535e-21,0.001965556642567139,-1.730600825523656e-21,0.001805851891572442,0.00042384667265457524,0.001948746725584878
1622822043.9154,-4.3511835774560175e-23,2.1097611277201842e-19,2.3,2.05,4.484599150367252e-11,-4.1717199139590377e-10,1.3414634466171265,-0.00830078125,-0.00634765625,-1.754141775485535e-21,0.001965556642567139,-1.730600825523656e-21,0.001805851891572442,0.00042384667265457524,0.001948746725584878
1622822043.9154,-4.3511835774560175e-23,2.1097611277201842e-19,2.3,2.05,4.484599150367252e-11,-4.1717199139590377e-10,1.3414634466171265,-0.00830078125,-0.00634765625,-1.754141775485535e-21,0.001965556642567139,-1.730600825523656e-21,0.001805851891572442,0.00042384667265457524,0.001948746725584878
1622822043.9154,-4.3511835774560175e-23,2.1097611277201842e-19,2.3,2.05,4.484599150367252e-11,-4.1717199139590377e-10,1.3414634466171265,-0.00830078125,-0.00634765625,-1.754141775485535e-21,0.001965556642567139,-1.730600825523656e-21,0.001805851891572442,0.00042384667265457524,0.001948746725584878
1622822043.9154,-4.3511835774560175e-23,2.1097611277201842e-19,2.3,2.05,4.484599150367252e-11,-4.1717199139590377e-10,1.3414634466171265,-0.00830078125,-0.00634765625,-1.754141775485535e-21,0.001965556642567139,-1.730600825523656e-21,0.001805851891572442,0.00042384667265457524,0.001948746725584878
1622822043.9754,-4.489977182513264e-23,2.109761099423724e-19,2.3,2.05,4.484599150367252e-11,-4.1717199139590377e-10,1.3414634466171265,-0.00830078125,-0.00634765625,-1.7656767277936193e-21,0.0019956974810461047,-1.7333315990501024e-21,0.0018027804906695082,0.0004254513088590212,0.001968507746687717
1622822043.9754,-4.489977182513264e-23,2.109761099423724e-19,2.3,2.05,4.484599150367252e-11,-4.1717199139590377e-10,1.3414634466171265,-0.00830078125,-0.00634765625,-1.7656767277936193e-21,0.0019956974810461047,-1.7333315990501024e-21,0.0018027804906695082,0.0004254513088590212,0.001968507746687717
1622822043.9754,-4.489977182513264e-23,2.109761099423724e-19,2.3,2.05,4.484599150367252e-11,-4.1717199139590377e-10,1.3414634466171265,-0.00830078125,-0.00634765625,-1.7656767277936193e-21,0.0019956974810461047,-1.7333315990501024e-21,0.0018027804906695082,0.0004254513088590212,0.001968507746687717
1622822043.9754,-4.489977182513264e-23,2.109761099423724e-19,2.28,2.03,4.484599150367252e-11,-4.1717199139590377e-10,1.3414634466171265,-0.00830078125,-0.00634765625,-1.7656767277936193e-21,0.0019956974810461047,-1.7333315990501024e-21,0.0018027804906695082,0.0004254513088590212,0.001968507746687717
1622822043.9754,-4.489977182513264e-23,2.109761099423724e-19,2.28,2.03,4.484599150367252e-11,-4.1717199139590377e-10,1.3414634466171265,-0.00830078125,-0.00634765625,-1.7656767277936193e-21,0.0019956974810461047,-1.737568900648189e-21,0.0018206483052767338,0.0004254513088590212,0.0019875741320387785
1622822044.0354002,-4.538273123989487e-23,2.1097610703744183e-19,2.28,2.03,4.484599150367252e-11,-4.1717199139590377e-10,1.3414634466171265,-0.0068359375,0.0068359375,-1.759356634324442e-21,0.0018696107449169453,-1.740118067900986e-21,0.001763651711655994,0.00042089195441969714,0.0020000008268894766
1622822044.0354002,-4.538273123989487e-23,2.1097610703744183e-19,2.28,2.03,4.484599150367252e-11,-4.1717199139590377e-10,1.3414634466171265,-0.0068359375,0.0068359375,-1.759356634324442e-21,0.0018696107449169453,-1.740118067900986e-21,0.001763651711655994,0.00042089195441969714,0.0020000008268894766
1622822044.0354002,-4.538273123989487e-23,2.1097610703744183e-19,2.28,2.03,4.484599150367252e-11,-4.1717199139590377e-10,1.3414634466171265,-0.0068359375,0.0068359375,-1.759356634324442e-21,0.0018696107449169453,-1.740118067900986e-21,0.001763651711655994,0.00042089195441969714,0.0020000008268894766
1622822044.0354002,-4.538273123989487e-23,2.1097610703744183e-19,2.28,2.03,4.708829159927319e-11,-4.380306117823807e-10,1.3414634466171265,-0.0068359375,0.0068359375,-1.759356634324442e-21,0.0018696107449169453,-1.740118067900986e-21,0.001763651711655994,0.00042089195441969714,0.0020000008268894766
1622822044.0354002,-4.538273123989487e-23,2.1097610703744183e-19,2.28,2.03,4.708829159927319e-11,-4.380306117823807e-10,1.3414634466171265,-0.0068359375,0.0068359375,-1.759356634324442e-21,0.0018696107449169453,-1.740118067900986e-21,0.001763651711655994,0.00042089195441969714,0.0020000008268894766
1622822044.0954,-4.623746264703686e-23,2.10976103977155e-19,2.28,2.03,4.708829159927319e-11,-4.380306117823807e-10,1.3414634466171265,-0.0068359375,0.0068359375,-1.7664011550824343e-21,0.0018442970077467468,-1.740118067900986e-21,0.001763651711655994,0.000420015012314313,0.0020000008268894766
1622822044.0954,-4.623746264703686e-23,2.10976103977155e-19,2.28,2.03,4.708829159927319e-11,-4.380306117823807e-10,1.3414634466171265,-0.0068359375,0.0068359375,-1.7664011550824343e-21,0.0018442970077467468,-1.740118067900986e-21,0.001763651711655994,0.000420015012314313,0.0020000008268894766
1622822044.0954,-4.623746264703686e-23,2.10976103977155e-19,2.28,2.03,4.708829159927319e-11,-4.380306117823807e-10,1.3414634466171265,-0.0068359375,0.0068359375,-1.7664011550824343e-21,0.0018442970077467468,-1.740118067900986e-21,0.001763651711655994,0.000420015012314313,0.0020000008268894766
1622822044.0954,-4.623746264703686e-23,2.10976103977155e-19,2.24,2.01,4.484599150367252e-11,-4.1717199139590377e-10,1.3414634466171265,-0.0068359375,0.0068359375,-1.7664011550824343e-21,0.0018442970077467468,-1.740118067900986e-21,0.001763651711655994,0.000420015012314313,0.0020000008268894766
1622822044.0954,-4.623746264703686e-23,2.10976103977155e-19,2.24,2.01,4.484599150367252e-11,-4.1717199139590377e-10,1.3414634466171265,-0.00634765625,0.0029296875,-1.7664011550824343e-21,0.0018442970077467468,-1.7433918233658964e-21,0.0017209464042221463,0.000420015012314313,0.0020076863469313103
1622822044.1554,-4.579205754320332e-23,2.1097610096501654e-19,2.24,2.01,4.484599150367252e-11,-4.1717199139590377e-10,1.3414634466171265,-0.00634765625,0.0029296875,-1.7552844235010946e-21,0.0017272087210793512,-1.7433918233658964e-21,0.0017209464042221463,0.00041476444637302375,0.0020076863469313103
1622822044.1554,-4.579205754320332e-23,2.1097610096501654e-19,2.24,2.01,4.484599150367252e-11,-4.1717199139590377e-10,1.3414634466171265,-0.00634765625,0.0029296875,-1.7552844235010946e-21,0.0017272087210793512,-1.7433918233658964e-21,0.0017209464042221463,0.00041476444637302375,0.0020076863469313103
1622822044.1554,-4.579205754320332e-23,2.1097610096501654e-19,2.24,2.01,4.484599150367252e-11,-4.1717199139590377e-10,1.3414634466171265,-0.00634765625,0.0029296875,-1.7552844235010946e-21,0.0017272087210793512,-1.7433918233658964e-21,0.0017209464042221463,0.00041476444637302375,0.0020076863469313103
1622822044.1554,-4.579205754320332e-23,2.1097610096501654e-19,2.24,2.01,4.484599150367252e-11,-4.1717199139590377e-10,1.3414634466171265,-0.00634765625,0.0029296875,-1.7552844235010946e-21,0.0017272087210793512,-1.7433918233658964e-21,0.0017209464042221463,0.00041476444637302375,0.0020076863469313103
1622822044.1554,-4.579205754320332e-23,2.1097610096501654e-19,2.24,2.01,4.708829159927319e-11,-4.380306117823807e-10,1.3414634466171265,-0.00634765625,0.0029296875,-1.7552844235010946e-21,0.0017272087210793512,-1.744204089406944e-21,0.0016385113067230942,0.00041476444637302375,0.002007573903997336
1622822044.1554,-4.625350614635485e-23,2.10976098754395e-19,2.24,2.01,4.708829159927319e-11,-4.380306117823807e-10,1.3414634466171265,-0.00634765625,0.0029296875,-1.7611444682498357e-21,0.0018814858329013187,-1.744204089406944e-21,0.0016385113067230942,0.0004195457833305427,0.002007573903997336
1622822044.1554,-4.625350614635485e-23,2.10976098754395e-19,2.24,2.01,4.708829159927319e-11,-4.380306117823807e-10,1.3414634466171265,-0.00634765625,0.0029296875,-1.7611444682498357e-21,0.0018814858329013187,-1.744204089406944e-21,0.0016385113067230942,0.0004195457833305427,0.002007573903997336
1622822044.1554,-4.625350614635485e-23,2.10976098754395e-19,2.34,1.99,4.708829159927319e-11,-4.380306117823807e-10,1.2195122241973877,-0.00830078125,-0.0029296875,-1.7611444682498357e-21,0.0018814858329013187,-1.744204089406944e-21,0.0016385113067230942,0.0004195457833305427,0.002007573903997336
1622822044.1554,-4.625350614635485e-23,2.10976098754395e-19,2.34,1.99,4.708829159927319e-11,-4.380306117823807e-10,1.2195122241973877,-0.00830078125,-0.0029296875,-1.7611444682498357e-21,0.0018814858329013187,-1.744140745074032e-21,0.001682286792906732,0.0004195457833305427,0.0019244915809783054
1622822044.1554,-4.625350614635485e-23,2.10976098754395e-19,2.34,1.99,4.708829159927319e-11,-4.380306117823807e-10,1.2195122241973877,-0.00830078125,-0.0029296875,-1.7611444682498357e-21,0.0018814858329013187,-1.744140745074032e-21,0.001682286792906732,0.0004195457833305427,0.0019244915809783054
1622822044.2494001,-4.112216799007424e-23,2.1097609634744198e-19,2.34,1.99,4.484599150367252e-11,-4.1717199139590377e-10,1.2195122241973877,-0.00830078125,-0.0029296875,-1.694415985871779e-21,0.0019378036882013957,-1.744140745074032e-21,0.001682286792906732,0.0004861967357824726,0.0019244915809783054
1622822044.2494001,-4.112216799007424e-23,2.1097609634744198e-19,2.34,1.99,4.484599150367252e-11,-4.1717199139590377e-10,1.2195122241973877,-0.00830078125,-0.0029296875,-1.694415985871779e-21,0.0019378036882013957,-1.744140745074032e-21,0.001682286792906732,0.0004861967357824726,0.0019244915809783054
1622822044.2494001,-4.112216799007424e-23,2.1097609634744198e-19,2.34,1.99,4.484599150367252e-11,-4.1717199139590377e-10,1.2195122241973877,-0.00830078125,-0.0029296875,-1.694415985871779e-21,0.0019378036882013957,-1.738111252938521e-21,0.001773638129414294,0.0004861967357824726,0.002033600350096145
1622822044.2494001,-4.112216799007424e-23,2.1097609634744198e-19,2.34,1.99,4.484599150367252e-11,-4.1717199139590377e-10,1.2195122241973877,-0.00830078125,-0.0029296875,-1.694415985871779e-21,0.0019378036882013957,-1.738111252938521e-21,0.001773638129414294,0.0004861967357824726,0.002033600350096145
1622822044.2494001,-4.112216799007424e-23,2.1097609634744198e-19,2.34,1.99,4.484599150367252e-11,-4.1717199139590377e-10,1.2195122241973877,-0.00830078125,-0.0029296875,-1.694415985871779e-21,0.0019378036882013957,-1.738111252938521e-21,0.001773638129414294,0.0004861967357824726,0.002033600350096145
1622822044.2754002,-4.1522791286061507e-23,2.109760937992764e-19,2.34,1.99,4.484599150367252e-11,-4.1717199139590377e-10,1.2195122241973877,-0.00830078125,-0.0029296875,-1.756396083507598e-21,0.0018826836071009294,-1.738111252938521e-21,0.001773638129414294,0.00041975758898859985,0.002033600350096145
1622822044.2754002,-4.1522791286061507e-23,2.109760937992764e-19,2.34,1.99,4.708829159927319e-11,-4.380306117823807e-10,1.2195122241973877,-0.00830078125,-0.0029296875,-1.756396083507598e-21,0.0018826836071009294,-1.738111252938521e-21,0.001773638129414294,0.00041975758898859985,0.002033600350096145
1622822044.2754002,-4.1522791286061507e-23,2.109760937992764e-19,2.31,2.13,4.708829159927319e-11,-4.380306117823807e-10,1.2195122241973877,-0.00830078125,-0.0029296875,-1.756396083507598e-21,0.0018826836071009294,-1.738111252938521e-21,0.001773638129414294,0.00041975758898859985,0.002033600350096145
1622822044.2754002,-4.1522791286061507e-23,2.109760937992764e-19,2.31,2.13,4.708829159927319e-11,-4.380306117823807e-10,1.2804877758026123,-0.0146484375,0.005859375,-1.756396083507598e-21,0.0018826836071009294,-1.738890740625284e-21,0.0017631120645073704,0.00041975758898859985,0.001984826415594677
1622822044.2754002,-4.1522791286061507e-23,2.109760937992764e-19,2.31,2.13,4.708829159927319e-11,-4.380306117823807e-10,1.2804877758026123,-0.0146484375,0.005859375,-1.756396083507598e-21,0.0018826836071009294,-1.738890740625284e-21,0.0017631120645073704,0.00041975758898859985,0.001984826415594677
1622822044.3534,-3.883154385724307e-23,2.1097609109784876e-19,2.31,2.13,4.708829159927319e-11,-4.380306117823807e-10,1.2804877758026123,-0.0146484375,0.005859375,-1.7195433569685715e-21,0.0018694966433317108,-1.738890740625284e-21,0.0017631120645073704,0.0004529637097979579,0.001984826415594677
1622822044.3534,-3.883154385724307e-23,2.1097609109784876e-19,2.31,2.13,4.708829159927319e-11,-4.380306117823807e-10,1.2804877758026123,-0.0146484375,0.005859375,-1.7195433569685715e-21,0.0018694966433317108,-1.738890740625284e-21,0.0017631120645073704,0.0004529637097979579,0.001984826415594677
1622822044.3534,-3.883154385724307e-23,2.1097609109784876e-19,2.31,2.13,4.708829159927319e-11,-4.380306117823807e-10,1.2804877758026123,-0.0146484375,0.005859375,-1.7195433569685715e-21,0.0018694966433317108,-1.738890740625284e-21,0.0017631120645073704,0.0004529637097979579,0.001984826415594677
1622822044.3534,-3.883154385724307e-23,2.1097609109784876e-19,2.31,2.13,4.708829159927319e-11,-4.380306117823807e-10,1.2804877758026123,-0.0146484375,0.005859375,-1.7195433569685715e-21,0.0018694966433317108,-1.7361886245278256e-21,0.0017702995490823045,0.0004529637097979579,0.0020514977910660905
1622822044.3534,-3.883154385724307e-23,2.1097609109784876e-19,2.31,2.13,4.708829159927319e-11,-4.380306117823807e-10,1.2804877758026123,-0.0146484375,0.005859375,-1.7195433569685715e-21,0.0018694966433317108,-1.7361886245278256e-21,0.0017702995490823045,0.0004529637097979579,0.0020514977910660905
1622822044.3954,-3.889838711407916e-23,2.1097608833918422e-19,2.31,2.13,4.708829159927319e-11,-4.380306117823807e-10,1.2804877758026123,-0.0146484375,0.005859375,-1.750156144426271e-21,0.0017858455020013388,-1.7361886245278256e-21,0.0017702995490823045,0.0004166374015325538,0.0020514977910660905
1622822044.3954,-3.889838711407916e-23,2.1097608833918422e-19,2.31,2.13,4.708829159927319e-11,-4.380306117823807e-10,1.2804877758026123,-0.0146484375,0.005859375,-1.750156144426271e-21,0.0017858455020013388,-1.7361886245278256e-21,0.0017702995490823045,0.0004166374015325538,0.0020514977910660905
1622822044.3954,-3.889838711407916e-23,2.1097608833918422e-19,2.31,2.13,4.708829159927319e-11,-4.380306117823807e-10,1.2804877758026123,-0.0146484375,0.005859375,-1.750156144426271e-21,0.0017858455020013388,-1.7368183985664327e-21,0.0017164520128837319,0.0004166374015325538,0.0020237331885386606
1622822044.3954,-3.889838711407916e-23,2.1097608833918422e-19,2.39,2.06,4.484599150367252e-11,-4.1717199139590377e-10,1.2804877758026123,-0.0146484375,0.005859375,-1.750156144426271e-21,0.0017858455020013388,-1.7368183985664327e-21,0.0017164520128837319,0.0004166374015325538,0.0020237331885386606
1622822044.3954,-3.889838711407916e-23,2.1097608833918422e-19,2.39,2.06,4.484599150367252e-11,-4.1717199139590377e-10,1.402438998222351,-0.0048828125,0.0029296875,-1.750156144426271e-21,0.0017858455020013388,-1.7368183985664327e-21,0.0017164520128837319,0.0004166374015325538,0.0020237331885386606
1622822044.4554,-3.765537888346257e-23,2.1097608560064538e-19,2.39,2.06,4.484599150367252e-11,-4.1717199139590377e-10,1.402438998222351,-0.0048828125,0.0029296875,-1.7361235676267916e-21,0.0016724077375911226,-1.7368183985664327e-21,0.0017164520128837319,0.0004118470496628324,0.0020237331885386606
1622822044.4554,-3.765537888346257e-23,2.1097608560064538e-19,2.39,2.06,4.484599150367252e-11,-4.1717199139590377e-10,1.402438998222351,-0.0048828125,0.0029296875,-1.7361235676267916e-21,0.0016724077375911226,-1.7368183985664327e-21,0.0017164520128837319,0.0004118470496628324,0.0020237331885386606
1622822044.4554,-3.765537888346257e-23,2.1097608560064538e-19,2.39,2.06,4.484599150367252e-11,-4.1717199139590377e-10,1.402438998222351,-0.0048828125,0.0029296875,-1.7361235676267916e-21,0.0016724077375911226,-1.7356305080778908e-21,0.001629492774506588,0.0004118470496628324,0.0020218661904906417
1622822044.4554,-3.765537888346257e-23,2.1097608560064538e-19,2.39,2.06,4.484599150367252e-11,-4.1717199139590377e-10,1.402438998222351,-0.0048828125,0.0029296875,-1.7361235676267916e-21,0.0016724077375911226,-1.7356305080778908e-21,0.001629492774506588,0.0004118470496628324,0.0020218661904906417
1622822044.4554,-3.765537888346257e-23,2.1097608560064538e-19,2.39,2.06,4.708829159927319e-11,-4.380306117823807e-10,1.402438998222351,-0.0048828125,0.0029296875,-1.7361235676267916e-21,0.0016724077375911226,-1.7356305080778908e-21,0.001629492774506588,0.0004118470496628324,0.0020218661904906417
1622822044.4574,-3.7398733011698315e-23,2.1097608355864772e-19,2.39,2.06,4.708829159927319e-11,-4.380306117823807e-10,1.402438998222351,-0.0048828125,0.0029296875,-1.742246096759089e-21,0.0019215075623927394,-1.7356305080778908e-21,0.001629492774506588,0.0004234298025037075,0.0020218661904906417
1622822044.4574,-3.7398733011698315e-23,2.1097608355864772e-19,2.39,2.06,4.708829159927319e-11,-4.380306117823807e-10,1.402438998222351,-0.0048828125,0.0029296875,-1.742246096759089e-21,0.0019215075623927394,-1.7356305080778908e-21,0.001629492774506588,0.0004234298025037075,0.0020218661904906417
1622822044.4574,-3.7398733011698315e-23,2.1097608355864772e-19,2.34,2.04,4.708829159927319e-11,-4.380306117823807e-10,1.402438998222351,-0.0048828125,0.0029296875,-1.742246096759089e-21,0.0019215075623927394,-1.7342835476742835e-21,0.0016900192159053202,0.0004234298025037075,0.001944620017900975
1622822044.4574,-3.7398733011698315e-23,2.1097608355864772e-19,2.34,2.04,4.708829159927319e-11,-4.380306117823807e-10,1.3414634466171265,-0.00927734375,0.01220703125,-1.742246096759089e-21,0.0019215075623927394,-1.7342835476742835e-21,0.0016900192159053202,0.0004234298025037075,0.001944620017900975
1622822044.4574,-3.7398733011698315e-23,2.1097608355864772e-19,2.34,2.04,4.708829159927319e-11,-4.380306117823807e-10,1.3414634466171265,-0.00927734375,0.01220703125,-1.7346800615964503e-21,0.001804618024288982,-1.7342835476742835e-21,0.0016900192159053202,0.0004167216507893184,0.001944620017900975
1622822044.5154002,-3.6334061017988566e-23,2.109760813738763e-19,2.34,2.04,4.484599150367252e-11,-4.1717199139590377e-10,1.3414634466171265,-0.00927734375,0.01220703125,-1.7346800615964503e-21,0.001804618024288982,-1.7342835476742835e-21,0.0016900192159053202,0.0004167216507893184,0.001944620017900975
1622822044.5154002,-3.6334061017988566e-23,2.109760813738763e-19,2.34,2.04,4.484599150367252e-11,-4.1717199139590377e-10,1.3414634466171265,-0.00927734375,0.01220703125,-1.7346800615964503e-21,0.001804618024288982,-1.7342835476742835e-21,0.0016900192159053202,0.0004167216507893184,0.001944620017900975
1622822044.5154002,-3.6334061017988566e-23,2.109760813738763e-19,2.34,2.04,4.484599150367252e-11,-4.1717199139590377e-10,1.3414634466171265,-0.00927734375,0.01220703125,-1.7346800615964503e-21,0.001804618024288982,-1.733413296021375e-21,0.0016764788752070129,0.0004167216507893184,0.00195284198873746
1622822044.5154002,-3.6334061017988566e-23,2.109760813738763e-19,2.34,2.04,4.484599150367252e-11,-4.1717199139590377e-10,1.3414634466171265,-0.00927734375,0.01220703125,-1.7346800615964503e-21,0.001804618024288982,-1.733413296021375e-21,0.0016764788752070129,0.0004167216507893184,0.00195284198873746
1622822044.5154002,-3.6334061017988566e-23,2.109760813738763e-19,2.34,2.04,4.484599150367252e-11,-4.1717199139590377e-10,1.3414634466171265,-0.00927734375,0.01220703125,-1.7346800615964503e-21,0.001804618024288982,-1.733413296021375e-21,0.0016764788752070129,0.0004167216507893184,0.00195284198873746
1622822044.5754,-3.6054321701786335e-23,2.1097607887924561e-19,2.34,2.04,4.484599150367252e-11,-4.1717199139590377e-10,1.3414634466171265,-0.00927734375,0.01220703125,-1.744754982281004e-21,0.00193611737169704,-1.733413296021375e-21,0.0016764788752070129,0.00042123784805242145,0.00195284198873746
1622822044.5754,-3.6054321701786335e-23,2.1097607887924561e-19,2.34,2.04,4.9566621640462216e-11,-4.610848369779319e-10,1.3414634466171265,-0.00927734375,0.01220703125,-1.744754982281004e-21,0.00193611737169704,-1.733413296021375e-21,0.0016764788752070129,0.00042123784805242145,0.00195284198873746
1622822044.5754,-3.6054321701786335e-23,2.1097607887924561e-19,2.34,2.04,4.9566621640462216e-11,-4.610848369779319e-10,1.2804877758026123,-0.00537109375,-0.001953125,-1.744754982281004e-21,0.00193611737169704,-1.7340636308692392e-21,0.0017280762042365164,0.00042123784805242145,0.001967029776360211
1622822044.5754,-3.6054321701786335e-23,2.1097607887924561e-19,2.3,2.06,4.9566621640462216e-11,-4.610848369779319e-10,1.2804877758026123,-0.00537109375,-0.001953125,-1.744754982281004e-21,0.00193611737169704,-1.7340636308692392e-21,0.0017280762042365164,0.00042123784805242145,0.001967029776360211
1622822044.5754,-3.6054321701786335e-23,2.1097607887924561e-19,2.3,2.06,4.9566621640462216e-11,-4.610848369779319e-10,1.2804877758026123,-0.00537109375,-0.001953125,-1.722430346189101e-21,0.0019012746767889353,-1.7340636308692392e-21,0.0017280762042365164,0.00043962896410397126,0.001967029776360211
1622822044.6454,-3.400349173220708e-23,2.1097607624274827e-19,2.3,2.06,4.9566621640462216e-11,-4.610848369779319e-10,1.2804877758026123,-0.00537109375,-0.001953125,-1.722430346189101e-21,0.0019012746767889353,-1.7340636308692392e-21,0.0017280762042365164,0.00043962896410397126,0.001967029776360211
1622822044.6454,-3.400349173220708e-23,2.1097607624274827e-19,2.3,2.06,4.484599150367252e-11,-4.1717199139590377e-10,1.2804877758026123,-0.00537109375,-0.001953125,-1.722430346189101e-21,0.0019012746767889353,-1.7318200416096115e-21,0.001763660615145757,0.00043962896410397126,0.002013225211398578
1622822044.6454,-3.400349173220708e-23,2.1097607624274827e-19,2.3,2.06,4.484599150367252e-11,-4.1717199139590377e-10,1.2804877758026123,-0.00537109375,-0.001953125,-1.722430346189101e-21,0.0019012746767889353,-1.7318200416096115e-21,0.001763660615145757,0.00043962896410397126,0.002013225211398578
1622822044.6454,-3.400349173220708e-23,2.1097607624274827e-19,2.3,2.06,4.484599150367252e-11,-4.1717199139590377e-10,1.2804877758026123,-0.00537109375,-0.001953125,-1.722430346189101e-21,0.0019012746767889353,-1.7318200416096115e-21,0.001763660615145757,0.00043962896410397126,0.002013225211398578
1622822044.6954,-3.3189308515258987e-23,2.1097607356114907e-19,2.3,2.06,4.484599150367252e-11,-4.1717199139590377e-10,1.2804877758026123,-0.00537109375,-0.001953125,-1.7356629713445545e-21,0.0018014116092355077,-1.7318200416096115e-21,0.001763660615145757,0.00041741804863114053,0.002013225211398578
1622822044.6954,-3.3189308515258987e-23,2.1097607356114907e-19,2.3,2.06,4.484599150367252e-11,-4.1717199139590377e-10,1.2804877758026123,-0.00537109375,-0.001953125,-1.7356629713445545e-21,0.0018014116092355077,-1.7318200416096115e-21,0.001763660615145757,0.00041741804863114053,0.002013225211398578
1622822044.6954,-3.3189308515258987e-23,2.1097607356114907e-19,2.3,2.06,4.484599150367252e-11,-4.1717199139590377e-10,1.2804877758026123,-0.00537109375,-0.001953125,-1.7356629713445545e-21,0.0018014116092355077,-1.730874727830503e-21,0.0017159466280790429,0.00041741804863114053,0.002003233012552635
1622822044.6954,-3.3189308515258987e-23,2.1097607356114907e-19,2.3,2.12,4.484599150367252e-11,-4.1717199139590377e-10,1.2804877758026123,-0.00537109375,-0.001953125,-1.7356629713445545e-21,0.0018014116092355077,-1.730874727830503e-21,0.0017159466280790429,0.00041741804863114053,0.002003233012552635
1622822044.6954,-3.3189308515258987e-23,2.1097607356114907e-19,2.3,2.12,4.484599150367252e-11,-4.1717199139590377e-10,1.3414634466171265,-0.00439453125,0.00244140625,-1.7356629713445545e-21,0.0018014116092355077,-1.730874727830503e-21,0.0017159466280790429,0.00041741804863114053,0.002003233012552635
1622822044.6954,-3.2799078332658023e-23,2.1097607160886318e-19,2.3,2.12,4.484599150367252e-11,-4.1717199139590377e-10,1.3414634466171265,-0.00439453125,0.00244140625,-1.7356629713445545e-21,0.0018014116092355077,-1.730874727830503e-21,0.0017159466280790429,0.00041741804863114053,0.002003233012552635
1622822044.6954,-3.2799078332658023e-23,2.1097607160886318e-19,2.3,2.12,4.484599150367252e-11,-4.1717199139590377e-10,1.3414634466171265,-0.00439453125,0.00244140625,-1.7356629713445545e-21,0.0018014116092355077,-1.730874727830503e-21,0.0017159466280790429,0.00041741804863114053,0.002003233012552635
1622822044.6954,-3.2799078332658023e-23,2.1097607160886318e-19,2.3,2.12,4.484599150367252e-11,-4.1717199139590377e-10,1.3414634466171265,-0.00439453125,0.00244140625,-1.7356629713445545e-21,0.0018014116092355077,-1.729166076490424e-21,0.001699426409409685,0.00041741804863114053,0.0019175133161943325
1622822044.6954,-3.2799078332658023e-23,2.1097607160886318e-19,2.3,2.12,4.484599150367252e-11,-4.1717199139590377e-10,1.3414634466171265,-0.00439453125,0.00244140625,-1.7356629713445545e-21,0.0018014116092355077,-1.729166076490424e-21,0.001699426409409685,0.00041741804863114053,0.0019175133161943325
1622822044.6954,-3.2799078332658023e-23,2.1097607160886318e-19,2.3,2.12,4.708829159927319e-11,-4.380306117823807e-10,1.3414634466171265,-0.00439453125,0.00244140625,-1.7356629713445545e-21,0.0018014116092355077,-1.729166076490424e-21,0.001699426409409685,0.00041741804863114053,0.0019175133161943325
1622822044.7554,-3.3286287351495233e-23,2.1097606930480706e-19,2.3,2.12,4.708829159927319e-11,-4.380306117823807e-10,1.3414634466171265,-0.00439453125,0.00244140625,-1.7491732068632795e-21,0.0020434879480562356,-1.729166076490424e-21,0.001699426409409685,0.00042411300076889243,0.0019175133161943325
1622822044.7554,-3.3286287351495233e-23,2.1097606930480706e-19,2.3,2.12,4.708829159927319e-11,-4.380306117823807e-10,1.3414634466171265,-0.00439453125,0.00244140625,-1.7491732068632795e-21,0.0020434879480562356,-1.729166076490424e-21,0.001699426409409685,0.00042411300076889243,0.0019175133161943325
1622822044.7554,-3.3286287351495233e-23,2.1097606930480706e-19,2.3,2.12,4.708829159927319e-11,-4.380306117823807e-10,1.3414634466171265,-0.00439453125,0.00244140625,-1.7491732068632795e-21,0.0020434879480562356,-1.729166076490424e-21,0.001699426409409685,0.00042411300076889243,0.0019175133161943325
1622822044.7554,-3.3286287351495233e-23,2.1097606930480706e-19,2.29,2.08,4.708829159927319e-11,-4.380306117823807e-10,1.3414634466171265,-0.00439453125,0.00244140625,-1.7491732068632795e-21,0.0020434879480562356,-1.729166076490424e-21,0.001699426409409685,0.00042411300076889243,0.0019175133161943325
1622822044.7554,-3.3286287351495233e-23,2.1097606930480706e-19,2.29,2.08,4.708829159927319e-11,-4.380306117823807e-10,1.2804877758026123,-0.00537109375,0.00537109375,-1.7491732068632795e-21,0.0020434879480562356,-1.729166076490424e-21,0.001699426409409685,0.00042411300076889243,0.0019175133161943325
1622822044.8534,-2.806023778624998e-23,2.1097606678210287e-19,2.29,2.08,0.017037706449627876,0.016099251806735992,1.2804877758026123,-0.00537109375,0.00537109375,-1.6800317083883252e-21,0.001939948505170713,-1.731123887122735e-21,0.0017932995835245387,0.0004971722510396849,0.0019394031411966637
1622822044.8534,-2.806023778624998e-23,2.1097606678210287e-19,2.29,2.08,0.017037706449627876,0.016099251806735992,1.2804877758026123,-0.00537109375,0.00537109375,-1.6800317083883252e-21,0.001939948505170713,-1.731123887122735e-21,0.0017932995835245387,0.0004971722510396849,0.0019394031411966637
1622822044.8534,-2.806023778624998e-23,2.1097606678210287e-19,2.29,2.08,0.017037706449627876,0.016099251806735992,1.2804877758026123,-0.00537109375,0.00537109375,-1.6800317083883252e-21,0.001939948505170713,-1.731123887122735e-21,0.0017932995835245387,0.0004971722510396849,0.0019394031411966637
1622822044.8534,-2.806023778624998e-23,2.1097606678210287e-19,2.29,2.08,0.017037706449627876,0.016099251806735992,1.2804877758026123,-0.00537109375,0.00537109375,-1.6800317083883252e-21,0.001939948505170713,-1.731123887122735e-21,0.0017932995835245387,0.0004971722510396849,0.0019394031411966637
1622822044.8534,-2.806023778624998e-23,2.1097606678210287e-19,2.29,2.08,0.017037706449627876,0.016099251806735992,1.2804877758026123,-0.00537109375,0.00537109375,-1.6800317083883252e-21,0.001939948505170713,-1.7238390977573376e-21,0.0018323785255195376,0.0004971722510396849,0.002065444267515826
1622822044.8754,0.0007285879117309574,9.929197391562573e-09,2.29,2.08,0.017037706449627876,0.016099251806735992,1.2804877758026123,-0.00537109375,0.00537109375,0.008979962679761151,0.0019080955334567261,-1.7238390977573376e-21,0.0018323785255195376,0.0007928437566761587,0.002065444267515826
1622822044.8754,0.0007285879117309574,9.929197391562573e-09,2.29,2.08,0.06506343185901642,-0.06759504973888397,1.2804877758026123,-0.00537109375,0.00537109375,0.008979962679761151,0.0019080955334567261,0.0013903966218120128,0.0018190017578544513,0.0007928437566761587,0.002031396369378829
1622822044.8754,0.0007285879117309574,9.929197391562573e-09,2.29,2.08,0.06506343185901642,-0.06759504973888397,1.2804877758026123,-0.00537109375,0.00537109375,0.008979962679761151,0.0019080955334567261,0.0013903966218120128,0.0018190017578544513,0.0007928437566761587,0.002031396369378829
1622822044.8754,0.0007285879117309574,9.929197391562573e-09,2.25,2.05,0.06506343185901642,-0.06759504973888397,1.2804877758026123,-0.00537109375,0.00537109375,0.008979962679761151,0.0019080955334567261,0.0013903966218120128,0.0018190017578544513,0.0007928437566761587,0.002031396369378829
1622822044.8754,0.0007285879117309574,9.929197391562573e-09,2.25,2.05,0.06506343185901642,-0.06759504973888397,2.1341464519500732,-0.03857421875,-0.23828125,0.008979962679761151,0.0019080955334567261,0.0013903966218120128,0.0018190017578544513,0.0007928437566761587,0.002031396369378829
1622822044.9354,0.0034058273469971356,-3.2395997033531604e-07,2.25,2.05,0.06506343185901642,-0.06759504973888397,2.1341464519500732,-0.03857421875,-0.23828125,0.033520311300798904,0.0016643776546786792,0.0013903966218120128,0.0018190017578544513,-0.0014647512146876934,0.002031396369378829
1622822044.9354,0.0034058273469971356,-3.2395997033531604e-07,2.25,2.05,0.06506343185901642,-0.06759504973888397,2.1341464519500732,-0.03857421875,-0.23828125,0.033520311300798904,0.0016643776546786792,0.0013903966218120128,0.0018190017578544513,-0.0014647512146876934,0.002031396369378829
1622822044.9354,0.0034058273469971356,-3.2395997033531604e-07,2.25,2.05,0.1433272659778595,0.016090936958789825,2.1341464519500732,-0.03857421875,-0.23828125,0.033520311300798904,0.0016643776546786792,0.0013903966218120128,0.0018190017578544513,-0.0014647512146876934,0.002031396369378829
1622822044.9354,0.0034058273469971356,-3.2395997033531604e-07,2.25,2.05,0.1433272659778595,0.016090936958789825,2.1341464519500732,-0.03857421875,-0.23828125,0.033520311300798904,0.0016643776546786792,0.0013903966218120128,0.0018190017578544513,-0.0014647512146876934,0.002031396369378829
1622822044.9354,0.0034058273469971356,-3.2395997033531604e-07,2.25,2.05,0.1433272659778595,0.016090936958789825,2.1341464519500732,-0.03857421875,-0.23828125,0.033520311300798904,0.0016643776546786792,0.006542067199963316,0.0016322807445046936,-0.0014647512146876934,0.0019268069979425945
1622822044.9954,0.007837276687022568,-1.7058989835910717e-06,2.25,2.05,0.1433272659778595,0.016090936958789825,2.1341464519500732,-0.03857421875,-0.23828125,0.05880500352984539,0.004176861673413701,0.006542067199963316,0.0016322807445046936,-0.002538979695837744,0.0019268069979425945
1622822044.9954,0.007837276687022568,-1.7058989835910717e-06,2.25,2.05,0.1433272659778595,0.016090936958789825,2.1341464519500732,-0.03857421875,-0.23828125,0.05880500352984539,0.004176861673413701,0.006542067199963316,0.0016322807445046936,-0.002538979695837744,0.0019268069979425945
1622822044.9954,0.007837276687022568,-1.7058989835910717e-06,2.25,2.05,0.25603893399238586,0.03218604251742363,0.9756097793579102,0.10205078125,-0.28173828125,0.05880500352984539,0.004176861673413701,0.006542067199963316,0.0016322807445046936,-0.002538979695837744,0.0019268069979425945
1622822044.9954,0.007837276687022568,-1.7058989835910717e-06,2.25,2.05,0.25603893399238586,0.03218604251742363,0.9756097793579102,0.10205078125,-0.28173828125,0.05880500352984539,0.004176861673413701,0.006542067199963316,0.0016322807445046936,-0.002538979695837744,0.0019268069979425945
1622822044.9954,0.007837276687022568,-1.7058989835910717e-06,2.24,2.03,0.25603893399238586,0.03218604251742363,0.9756097793579102,0.10205078125,-0.28173828125,0.05880500352984539,0.004176861673413701,0.01520605939672209,0.0024778756293132786,-0.002538979695837744,0.0018239587891170656
1622822045.0554001,0.0140090294150583,-3.6549165577221584e-06,2.24,2.03,0.25603893399238586,0.03218604251742363,0.9756097793579102,0.10205078125,-0.28173828125,0.08718729302020015,0.003937097123269644,0.01520605939672209,0.0024778756293132786,-0.002121444839997902,0.0018239587891170656
1622822045.0554001,0.0140090294150583,-3.6549165577221584e-06,2.24,2.03,0.25603893399238586,0.03218604251742363,0.9756097793579102,0.10205078125,-0.28173828125,0.08718729302020015,0.003937097123269644,0.01520605939672209,0.0024778756293132786,-0.002121444839997902,0.0018239587891170656
1622822045.0554001,0.0140090294150583,-3.6549165577221584e-06,2.24,2.03,0.25603893399238586,0.03218604251742363,0.9756097793579102,0.10205078125,-0.28173828125,0.08718729302020015,0.003937097123269644,0.01520605939672209,0.0024778756293132786,-0.002121444839997902,0.0018239587891170656
1622822045.0554001,0.0140090294150583,-3.6549165577221584e-06,2.24,2.03,0.25603893399238586,0.03218604251742363,0.9756097793579102,0.10205078125,-0.28173828125,0.08718729302020015,0.003937097123269644,0.02747004444661595,0.002793034805552314,-0.002121444839997902,0.0017601396329923493
1622822045.0554001,0.0140090294150583,-3.6549165577221584e-06,2.24,2.03,0.3813531696796417,0.03380843251943588,0.9756097793579102,0.10205078125,-0.28173828125,0.08718729302020015,0.003937097123269644,0.02747004444661595,0.002793034805552314,-0.002121444839997902,0.0017601396329923493
1622822045.0614002,0.018629612094725592,-5.073464334017922e-06,2.24,2.03,0.3813531696796417,0.03380843251943588,0.9756097793579102,0.10205078125,-0.28173828125,0.08916880781813129,0.006220533569107192,0.02747004444661595,0.002793034805552314,-0.002014396785625929,0.0017601396329923493
1622822045.0614002,0.018629612094725592,-5.073464334017922e-06,2.24,2.03,0.3813531696796417,0.03380843251943588,0.9756097793579102,0.10205078125,-0.28173828125,0.08916880781813129,0.006220533569107192,0.02747004444661595,0.002793034805552314,-0.002014396785625929,0.0017601396329923493
1622822045.0614002,0.018629612094725592,-5.073464334017922e-06,2.24,2.03,0.3813531696796417,0.03380843251943588,0.9756097793579102,0.10205078125,-0.28173828125,0.08916880781813129,0.006220533569107192,0.02747004444661595,0.002793034805552314,-0.002014396785625929,0.0017601396329923493
1622822045.0614002,0.018629612094725592,-5.073464334017922e-06,2.23,1.99,0.3813531696796417,0.03380843251943588,-1.4634146690368652,-0.19189453125,0.048828125,0.08916880781813129,0.006220533569107192,0.036379787257364224,0.003939287478463993,-0.002014396785625929,0.0016710226345869198
1622822045.0614002,0.018629612094725592,-5.073464334017922e-06,2.23,1.99,0.3813531696796417,0.03380843251943588,-1.4634146690368652,-0.19189453125,0.048828125,0.08916880781813129,0.006220533569107192,0.036379787257364224,0.003939287478463993,-0.002014396785625929,0.0016710226345869198
1622822045.1454,0.026019658498860426,-5.101055119221784e-06,2.23,1.99,0.4613310396671295,-0.016111720353364944,-1.4634146690368652,-0.19189453125,0.048828125,0.12807252789185902,0.0017205926256015514,0.036379787257364224,0.003939287478463993,-0.0005977152491291819,0.0016710226345869198
1622822045.1454,0.026019658498860426,-5.101055119221784e-06,2.23,1.99,0.4613310396671295,-0.016111720353364944,-1.4634146690368652,-0.19189453125,0.048828125,0.12807252789185902,0.0017205926256015514,0.036379787257364224,0.003939287478463993,-0.0005977152491291819,0.0016710226345869198
1622822045.1454,0.026019658498860426,-5.101055119221784e-06,2.23,1.99,0.4613310396671295,-0.016111720353364944,-1.4634146690368652,-0.19189453125,0.048828125,0.12807252789185902,0.0017205926256015514,0.036379787257364224,0.003939287478463993,-0.0005977152491291819,0.0016710226345869198
1622822045.1454,0.026019658498860426,-5.101055119221784e-06,2.23,1.99,0.4613310396671295,-0.016111720353364944,-1.4634146690368652,-0.19189453125,0.048828125,0.12807252789185902,0.0017205926256015514,0.052062566050222886,0.0028042708938309817,-0.0005977152491291819,0.001833638522627611
1622822045.1454,0.026019658498860426,-5.101055119221784e-06,2.23,1.99,0.4613310396671295,-0.016111720353364944,-1.4634146690368652,-0.19189453125,0.048828125,0.12807252789185902,0.0017205926256015514,0.052062566050222886,0.0028042708938309817,-0.0005977152491291819,0.001833638522627611
1622822045.1754,0.034068432014155894,-3.090126057522451e-06,2.23,1.99,0.4613310396671295,-0.016111720353364944,-1.4634146690368652,-0.19189453125,0.048828125,0.1538469850397262,0.0016887346666864995,0.052062566050222886,0.0028042708938309817,-5.3858376010268445e-05,0.001833638522627611
1622822045.1754,0.034068432014155894,-3.090126057522451e-06,2.23,1.99,0.538838267326355,-0.03380843251943588,-1.4634146690368652,-0.19189453125,0.048828125,0.1538469850397262,0.0016887346666864995,0.052062566050222886,0.0028042708938309817,-5.3858376010268445e-05,0.001833638522627611
1622822045.1754,0.034068432014155894,-3.090126057522451e-06,2.23,1.99,0.538838267326355,-0.03380843251943588,-1.4634146690368652,-0.19189453125,0.048828125,0.1538469850397262,0.0016887346666864995,0.052062566050222886,0.0028042708938309817,-5.3858376010268445e-05,0.001833638522627611
1622822045.1754,0.034068432014155894,-3.090126057522451e-06,2.23,1.99,0.538838267326355,-0.03380843251943588,3.4146342277526855,-0.3955078125,0.16259765625,0.1538469850397262,0.0016887346666864995,0.06820246698075927,0.002340538950527285,-5.3858376010268445e-05,0.0017700621009613653
1622822045.1754,0.034068432014155894,-3.090126057522451e-06,2.24,2.1,0.538838267326355,-0.03380843251943588,3.4146342277526855,-0.3955078125,0.16259765625,0.1538469850397262,0.0016887346666864995,0.06820246698075927,0.002340538950527285,-5.3858376010268445e-05,0.0017700621009613653
1622822045.2494001,0.04448290741910083,3.122625539642059e-08,2.24,2.1,0.538838267326355,-0.03380843251943588,3.4146342277526855,-0.3955078125,0.16259765625,0.1943990620193651,0.0028402726165632727,0.06820246698075927,0.002340538950527285,-9.260313017000816e-05,0.0017700621009613653
1622822045.2494001,0.04448290741910083,3.122625539642059e-08,2.24,2.1,0.538838267326355,-0.03380843251943588,3.4146342277526855,-0.3955078125,0.16259765625,0.1943990620193651,0.0028402726165632727,0.06820246698075927,0.002340538950527285,-9.260313017000816e-05,0.0017700621009613653
1622822045.2494001,0.04448290741910083,3.122625539642059e-08,2.24,2.1,0.5357719659805298,0.0,3.4146342277526855,-0.3955078125,0.16259765625,0.1943990620193651,0.0028402726165632727,0.09061300879100531,0.002516876017565993,-9.260313017000816e-05,0.0018469921844773377
1622822045.2494001,0.04448290741910083,3.122625539642059e-08,2.24,2.1,0.5357719659805298,0.0,3.4146342277526855,-0.3955078125,0.16259765625,0.1943990620193651,0.0028402726165632727,0.09061300879100531,0.002516876017565993,-9.260313017000816e-05,0.0018469921844773377
1622822045.2494001,0.04448290741910083,3.122625539642059e-08,2.24,2.1,0.5357719659805298,0.0,3.4146342277526855,-0.3955078125,0.16259765625,0.1943990620193651,0.0028402726165632727,0.09061300879100531,0.002516876017565993,-9.260313017000816e-05,0.0018469921844773377
1622822045.2954001,0.05577577739282152,3.1480677403437673e-06,2.24,2.1,0.5357719659805298,0.0,3.4146342277526855,-0.3955078125,0.16259765625,0.22764156281954573,0.002708802265250293,0.09061300879100531,0.002516876017565993,1.4003262314019818e-05,0.0018469921844773377
1622822045.2954001,0.05577577739282152,3.1480677403437673e-06,2.24,2.1,0.5357719659805298,0.0,3.4146342277526855,-0.3955078125,0.16259765625,0.22764156281954573,0.002708802265250293,0.11422193735626429,0.0025201872431506447,1.4003262314019818e-05,0.0018206445117537125
1622822045.2954001,0.05577577739282152,3.1480677403437673e-06,2.24,2.1,0.5357719659805298,0.0,3.4146342277526855,-0.3955078125,0.16259765625,0.22764156281954573,0.002708802265250293,0.11422193735626429,0.0025201872431506447,1.4003262314019818e-05,0.0018206445117537125
1622822045.2954001,0.05577577739282152,3.1480677403437673e-06,2.28,2.15,0.5072554349899292,-0.01609925366938114,-0.7317073345184326,0.11083984375,-0.18994140625,0.22764156281954573,0.002708802265250293,0.11422193735626429,0.0025201872431506447,1.4003262314019818e-05,0.0018206445117537125
1622822045.2954001,0.05577577739282152,3.1480677403437673e-06,2.28,2.15,0.5072554349899292,-0.01609925366938114,-0.7317073345184326,0.11083984375,-0.18994140625,0.22764156281954573,0.002708802265250293,0.11422193735626429,0.0025201872431506447,1.4003262314019818e-05,0.0018206445117537125
1622822045.3554,0.06804620303270018,6.117734463694042e-06,2.28,2.15,0.5072554349899292,-0.01609925366938114,-0.7317073345184326,0.11083984375,-0.18994140625,0.2615010040747766,0.0025296704059134868,0.11422193735626429,0.0025201872431506447,-0.0001130629993869669,0.0018206445117537125
1622822045.3554,0.06804620303270018,6.117734463694042e-06,2.28,2.15,0.5072554349899292,-0.01609925366938114,-0.7317073345184326,0.11083984375,-0.18994140625,0.2615010040747766,0.0025296704059134868,0.11422193735626429,0.0025201872431506447,-0.0001130629993869669,0.0018206445117537125
1622822045.3554,0.06804620303270018,6.117734463694042e-06,2.28,2.15,0.5072554349899292,-0.01609925366938114,-0.7317073345184326,0.11083984375,-0.18994140625,0.2615010040747766,0.0025296704059134868,0.1410099637638846,0.0024385226819530906,-0.0001130629993869669,0.0017888456780787913
1622822045.3554,0.06804620303270018,6.117734463694042e-06,2.28,2.15,0.5072554349899292,-0.01609925366938114,-0.7317073345184326,0.11083984375,-0.18994140625,0.2615010040747766,0.0025296704059134868,0.1410099637638846,0.0024385226819530906,-0.0001130629993869669,0.0017888456780787913
1622822045.3554,0.06804620303270018,6.117734463694042e-06,2.28,2.15,0.5541001558303833,-9.185850103676785e-06,-0.7317073345184326,0.11083984375,-0.18994140625,0.2615010040747766,0.0025296704059134868,0.1410099637638846,0.0024385226819530906,-0.0001130629993869669,0.0017888456780787913
1622822045.3554,0.07687957197961526,8.23371423992345e-06,2.28,2.15,0.5541001558303833,-9.185850103676785e-06,-0.7317073345184326,0.11083984375,-0.18994140625,0.26150100399148335,-0.0005230391375452836,0.1410099637638846,0.0024385226819530906,-0.00020691523264470486,0.0017888456780787913
1622822045.3554,0.07687957197961526,8.23371423992345e-06,2.28,2.15,0.5541001558303833,-9.185850103676785e-06,-0.7317073345184326,0.11083984375,-0.18994140625,0.26150100399148335,-0.0005230391375452836,0.1410099637638846,0.0024385226819530906,-0.00020691523264470486,0.0017888456780787913
1622822045.3554,0.07687957197961526,8.23371423992345e-06,2.41,2.06,0.5541001558303833,-9.185850103676785e-06,-0.7317073345184326,0.11083984375,-0.18994140625,0.26150100399148335,-0.0005230391375452836,0.15788527629836027,0.0013676488962806846,-0.00020691523264470486,0.0015697588783915753
1622822045.3554,0.07687957197961526,8.23371423992345e-06,2.41,2.06,0.5541001558303833,-9.185850103676785e-06,-0.7317073345184326,0.11083984375,-0.18994140625,0.26150100399148335,-0.0005230391375452836,0.15788527629836027,0.0013676488962806846,-0.00020691523264470486,0.0015697588783915753
1622822045.3554,0.07687957197961526,8.23371423992345e-06,2.41,2.06,0.5541001558303833,-9.185850103676785e-06,-2.682926893234253,-0.21826171875,-0.0283203125,0.26150100399148335,-0.0005230391375452836,0.15788527629836027,0.0013676488962806846,-0.00020691523264470486,0.0015697588783915753
1622822045.4154,0.08688024841286345,1.0415883258926488e-05,2.41,2.06,0.48602262139320374,-4.1717199139590377e-10,-2.682926893234253,-0.21826171875,-0.0283203125,0.29125933192147835,-0.000476172473810979,0.15788527629836027,0.0013676488962806846,8.241287077343042e-05,0.0015697588783915753
1622822045.4154,0.08688024841286345,1.0415883258926488e-05,2.41,2.06,0.48602262139320374,-4.1717199139590377e-10,-2.682926893234253,-0.21826171875,-0.0283203125,0.29125933192147835,-0.000476172473810979,0.15788527629836027,0.0013676488962806846,8.241287077343042e-05,0.0015697588783915753
1622822045.4154,0.08688024841286345,1.0415883258926488e-05,2.41,2.06,0.48602262139320374,-4.1717199139590377e-10,-2.682926893234253,-0.21826171875,-0.0283203125,0.29125933192147835,-0.000476172473810979,0.1815428366120788,0.0006955170505943038,8.241287077343042e-05,0.0014564240072084066
1622822045.4154,0.08688024841286345,1.0415883258926488e-05,2.41,2.06,0.48602262139320374,-4.1717199139590377e-10,-2.682926893234253,-0.21826171875,-0.0283203125,0.29125933192147835,-0.000476172473810979,0.1815428366120788,0.0006955170505943038,8.241287077343042e-05,0.0014564240072084066
1622822045.4154,0.08688024841286345,1.0415883258926488e-05,2.41,2.06,0.48602262139320374,-4.1717199139590377e-10,-2.682926893234253,-0.21826171875,-0.0283203125,0.29125933192147835,-0.000476172473810979,0.1815428366120788,0.0006955170505943038,8.241287077343042e-05,0.0014564240072084066
1622822045.4754,0.09740935867406582,1.242776544135431e-05,2.41,2.06,0.5143424272537231,-8.725055522518232e-06,-2.682926893234253,-0.21826171875,-0.0283203125,0.3168323405438542,0.012082865162455679,0.1815428366120788,0.0006955170505943038,0.0006466504452855177,0.0014564240072084066
1622822045.4754,0.09740935867406582,1.242776544135431e-05,2.41,2.06,0.5143424272537231,-8.725055522518232e-06,-2.682926893234253,-0.21826171875,-0.0283203125,0.3168323405438542,0.012082865162455679,0.2067864808616368,0.005451377399212393,0.0006466504452855177,0.0016541288464666359
1622822045.4754,0.09740935867406582,1.242776544135431e-05,2.43,2.04,0.5143424272537231,-8.725055522518232e-06,-2.682926893234253,-0.21826171875,-0.0283203125,0.3168323405438542,0.012082865162455679,0.2067864808616368,0.005451377399212393,0.0006466504452855177,0.0016541288464666359
1622822045.4754,0.09740935867406582,1.242776544135431e-05,2.43,2.04,0.5143424272537231,-8.725055522518232e-06,-2.682926893234253,-0.21826171875,-0.0283203125,0.3168323405438542,0.012082865162455679,0.2067864808616368,0.005451377399212393,0.0006466504452855177,0.0016541288464666359
1622822045.4754,0.09740935867406582,1.242776544135431e-05,2.43,2.04,0.5143424272537231,-8.725055522518232e-06,1.6463414430618286,-0.01806640625,0.12255859375,0.3168323405438542,0.012082865162455679,0.2067864808616368,0.005451377399212393,0.0006466504452855177,0.0016541288464666359
1622822045.5354002,0.10795947208449362,1.4652561137659597e-05,2.43,2.04,0.5143424272537231,-8.725055522518232e-06,1.6463414430618286,-0.01806640625,0.12255859375,0.33923126031499606,0.011347613051212934,0.2067864808616368,0.005451377399212393,0.0011378401125568547,0.0016541288464666359
1622822045.5354002,0.10795947208449362,1.4652561137659597e-05,2.43,2.04,0.4856569468975067,0.03217357397079468,1.6463414430618286,-0.01806640625,0.12255859375,0.33923126031499606,0.011347613051212934,0.2067864808616368,0.005451377399212393,0.0011378401125568547,0.0016541288464666359
1622822045.5354002,0.10795947208449362,1.4652561137659597e-05,2.43,2.04,0.4856569468975067,0.03217357397079468,1.6463414430618286,-0.01806640625,0.12255859375,0.33923126031499606,0.011347613051212934,0.2327072722953025,0.007532822724038012,0.0011378401125568547,0.0019649835569599634
1622822045.5354002,0.10795947208449362,1.4652561137659597e-05,2.43,2.04,0.4856569468975067,0.03217357397079468,1.6463414430618286,-0.01806640625,0.12255859375,0.33923126031499606,0.011347613051212934,0.2327072722953025,0.007532822724038012,0.0011378401125568547,0.0019649835569599634
1622822045.5354002,0.10795947208449362,1.4652561137659597e-05,2.43,2.04,0.4856569468975067,0.03217357397079468,1.6463414430618286,-0.01806640625,0.12255859375,0.33923126031499606,0.011347613051212934,0.2327072722953025,0.007532822724038012,0.0011378401125568547,0.0019649835569599634
1622822045.5954,0.11811270919989537,1.605828111103278e-05,2.43,2.04,0.4856569468975067,0.03217357397079468,1.6463414430618286,-0.01806640625,0.12255859375,0.35852369761424047,0.017046521361353484,0.2327072722953025,0.007532822724038012,0.0017675676890296684,0.0019649835569599634
1622822045.5954,0.11811270919989537,1.605828111103278e-05,2.43,2.04,0.4856569468975067,0.03217357397079468,1.6463414430618286,-0.01806640625,0.12255859375,0.35852369761424047,0.017046521361353484,0.2327072722953025,0.007532822724038012,0.0017675676890296684,0.0019649835569599634
1622822045.5954,0.11811270919989537,1.605828111103278e-05,2.45,2.05,0.4856569468975067,0.03217357397079468,1.6463414430618286,-0.01806640625,0.12255859375,0.35852369761424047,0.017046521361353484,0.2327072722953025,0.007532822724038012,0.0017675676890296684,0.0019649835569599634
1622822045.5954,0.11811270919989537,1.605828111103278e-05,2.45,2.05,0.49194732308387756,-0.016090940684080124,2.317073106765747,-0.0712890625,0.1376953125,0.35852369761424047,0.017046521361353484,0.2327072722953025,0.007532822724038012,0.0017675676890296684,0.0019649835569599634
1622822045.5954,0.11811270919989537,1.605828111103278e-05,2.45,2.05,0.49194732308387756,-0.016090940684080124,2.317073106765747,-0.0712890625,0.1376953125,0.35852369761424047,0.017046521361353484,0.2327072722953025,0.007532822724038012,0.0017675676890296684,0.0019649835569599634
1622822045.6554,0.12760725643924295,1.73508753606689e-05,2.45,2.05,0.49194732308387756,-0.016090940684080124,2.317073106765747,-0.0712890625,0.1376953125,0.37563317219318637,0.015988020984400265,0.25852522065525824,0.01148379322114132,0.002121535683315455,0.0025184836275784763
1622822045.6554,0.12760725643924295,1.73508753606689e-05,2.45,2.05,0.49194732308387756,-0.016090940684080124,2.317073106765747,-0.0712890625,0.1376953125,0.37563317219318637,0.015988020984400265,0.25852522065525824,0.01148379322114132,0.002121535683315455,0.0025184836275784763
