time,la_x,la_y,uwb_x,uwb_y,vel_linear_x,vel_angular_z,mpu_ang_vel_z,mpu_linear_acc_x,mpu_linear_acc_y,odom_linear_x,odom_angular_z,odom_filtered_linear_x,odom_filtered_angular_z,odom_yaw,odom_filtered_yaw,cmd_linear_x,cmd_angular_z,var_x,var_y,var_xvel,var_yvel,vel_linear_y,odom_linear_y,odom_filtered_linear_y,cmd_linear_y
1626091655.5629618,1.659008139006654e-05,-1.480463759934631e-06,0.0,0.0,3.236893917346606e-07,-3.0110641091596335e-06,,,,-2.746564340209038e-10,0.001611680201614771,5.721973913210514e-06,0.0016068191332018393,-0.3234117807141664,-0.32190581727197154,,,3.891196859544968,3.891087178757397,0.009964426210675049,0.009964426210745437,0.0,3.482472315825211e-06,3.948065749999133e-06,
1626091655.622962,1.6022304789058528e-05,-1.5238230659585102e-06,5.81,4.91,3.246792630307027e-07,-3.0202722882677335e-06,1.2804877758026123,0.0029296875,0.0048828125,-2.504060962856549e-10,0.001653669354505015,4.737409724187927e-06,0.0015115859865049248,-0.3234128119721839,-0.3219814365862949,,,3.8915072112728617,3.8913975304857003,0.008914582636090785,0.008914582636143026,0.0,3.213575139125583e-06,3.552258454062147e-06,
1626091655.682962,1.5455692185926896e-05,-1.5643287866286605e-06,5.78,4.91,3.236893917346606e-07,-3.0110641091596335e-06,1.402438998222351,0.00244140625,0.001953125,-1.9510864780520497e-10,0.0015599389966775643,4.540027638786191e-06,0.0014557272707756991,-0.32341609411229527,-0.3219354927794442,,,3.892599650393574,3.8924899696057227,0.010382768733923568,0.010382768733963632,0.0,2.6114142214352757e-06,2.820560384012762e-06,
1626091655.760962,1.4573076302427814e-05,-1.618780913436921e-06,5.75,4.91,3.236893917346606e-07,-3.0110641091596335e-06,1.3414634466171265,0.00927734375,-0.00244140625,-1.2967391440804414e-10,0.000868665155587772,3.193693243833596e-06,0.0011071956562361542,-0.3234415914941978,-0.32203543852908373,,,3.894077891186714,3.893968210398993,0.009984446806552364,0.009984446806575223,0.0,1.8334012030359247e-06,1.8325898962772909e-06,
1626091655.8029618,1.4121905531478132e-05,-1.6469465921369986e-06,5.78,4.92,3.246792630307027e-07,-3.0202722882677335e-06,1.2804877758026123,-0.00146484375,0.00439453125,-9.849744380007339e-11,0.0010217103906980198,2.656465980918329e-06,0.0009406909287580919,-0.3234424295690334,-0.32217130623565926,,,3.8948191097047964,3.89470942891712,0.009707935729877331,0.009707935729895758,0.0,1.5195440286055606e-06,1.4498885400608091e-06,
1626091655.8649619,1.3653657331754025e-05,-1.6729099038100893e-06,5.76,4.9,3.246792630307027e-07,-3.0202722882677335e-06,1.3414634466171265,0.00537109375,-0.0048828125,-7.191599776847968e-11,0.0005533381334156388,2.2353534265033367e-06,0.0006746264702287367,-0.3234553462701522,-0.3223075763051813,,,3.8955954124451355,3.8954857316574487,0.009586320942414722,0.009586320942430213,0.0,1.25200274731984e-06,1.1198919393280721e-06,
1626091655.922962,1.3185595614185302e-05,-1.6970097577633632e-06,5.75,4.92,3.227055174193083e-07,-3.0019118639756925e-06,1.402438998222351,-0.00244140625,0.00341796875,-4.699502338538357e-11,0.0007909190744636107,1.7918627451981375e-06,0.0005560452579589044,-0.3234427250026613,-0.3224760244362578,,,3.8962916462118096,3.896181965424192,0.008930510236043441,0.008930510236056408,0.0,9.72504655193135e-07,8.701841700684361e-07,
1626091655.982962,1.2718723844133998e-05,-1.718516297150253e-06,5.8,4.9,3.236893917346606e-07,-3.0110641091596335e-06,1.402438998222351,-0.0029296875,0.00390625,-3.65305863104665e-11,0.0008826348775735679,1.7151334092365954e-06,0.0007729528555051755,-0.3234495774760083,-0.3225188409671012,,,3.8973844612166735,3.897274780428794,0.010387687550363409,0.010387687550375613,0.0,7.77595156887712e-07,5.706727416577358e-07,
1626091656.0529618,1.2004745921217562e-05,-1.7463386793230773e-06,5.86,4.94,3.236893917346606e-07,-3.0110641091596335e-06,1.3414634466171265,-0.00048828125,0.00390625,-2.319626035896931e-11,0.0008729021660226219,1.2061611136155093e-06,0.0009196372044652114,-0.32344871429695704,-0.3225585398362773,,,3.8988627863893757,3.898753105601543,0.00998466180776696,0.009984661807775809,0.0,4.527761889097734e-07,2.600226157340592e-07,
1626091656.102962,1.1629559533607527e-05,-1.7594274825596846e-06,5.87,4.91,3.236893917346606e-07,-3.0110641091596335e-06,1.2804877758026123,-0.01220703125,0.00048828125,-1.9555885461890388e-11,0.0009525361996233276,1.003278159910544e-06,0.0008765698996875598,-0.3234464765750954,-0.3225901770411368,,,3.8996040310246203,3.8994943502368016,0.009707784622394456,0.009707784622401874,0.0,3.7063515782171216e-07,1.5165515154267284e-07,
1626091656.162962,1.1244411684000005e-05,-1.7705507813656784e-06,5.86,4.91,3.236893917346606e-07,-3.0110641091596335e-06,1.402438998222351,-0.00634765625,0.001953125,-1.4236929232888483e-11,0.0008472747015764422,8.442532687894806e-07,0.0008862321568728405,-0.3234498941887686,-0.3226102421468672,,,3.9003803342403973,3.9002706534525737,0.009586070827258531,0.009586070827264728,0.0,2.5748397027709635e-07,6.159299060926834e-08,
1626091656.222962,1.085615168797594e-05,-1.7794518902097879e-06,5.9,4.9,3.236893917346606e-07,-3.0110641091596335e-06,1.402438998222351,-0.005859375,-0.0048828125,-1.0708239811113824e-11,0.0009663083061267998,6.772871178799888e-07,0.0008205921712934445,-0.32342952844287565,-0.3226534398864193,,,3.9010903088490863,3.9009806280612844,0.008949425330836721,0.008949425330841764,0.0,1.8436282119491174e-07,7.214421459867032e-09,
1626091656.2829618,1.0469744680944118e-05,-1.7860573842713412e-06,5.9,4.9,0.04771026223897934,-0.21479609608650208,-0.3048780560493469,0.0,-0.07080078125,0.04397988730736062,0.0005791992687759846,0.01512912977018666,0.0006083584577508326,-0.32364469356168857,-0.3227040334489899,0.5,0.0,3.90205193338787,3.901942252616227,0.008926297771563042,0.00892629791552527,0.0,2.747287986755727e-07,-1.548898770688691e-08,0.0
1626091656.3649619,9.863702813972568e-06,-1.7892773505734726e-06,5.75,4.84,0.5149419903755188,0.049588270485401154,0.7317073345184326,0.501953125,0.07958984375,0.17958930200708106,0.015400982931215359,0.11064519454611209,0.018666741898623843,-0.32539831881314496,-0.3239602750570541,0.5,0.0,3.9037506327570037,3.9036410327343627,0.010065738753745173,0.010065808357633358,0.0,0.0001160303761118511,-2.373209994654782e-05,0.0
1626091656.402962,9.558802467191232e-06,-1.79121722173285e-06,5.74,4.8,0.5090742111206055,0.01707938313484192,2.5609755516052246,-0.02978515625,-0.42724609375,0.21889600097685458,0.017261829721587716,0.1693683709419824,0.012388774471156508,-0.32457090672536226,-0.3219099883078078,0.5,0.0,3.9047117408721244,3.904602439832821,0.009724845673370007,0.009725029886640731,0.0,0.00013853510597654266,7.803891470387747e-05,0.0
1626091656.462962,9.244723929161839e-06,-1.7911374384348713e-06,5.73,4.68,0.41287651658058167,0.0002663719351403415,1.1585365533828735,-0.18359375,0.15283203125,0.24061439376562951,0.013007798327259085,0.21572037578798328,0.016754474254152163,-0.32218093573031703,-0.3204090317708456,0.5,0.0,3.9059273727508454,3.9058188578936446,0.009590809145697833,0.009591189677042708,0.0,0.0001061233046291545,0.00010503697958020451,0.0
1626091656.5229619,8.927338130355276e-06,-1.7889712181930068e-06,5.71,4.6,0.03488999977707863,0.03256649896502495,-0.9146341681480408,0.021484375,0.18505859375,0.21422706174717634,0.0034670046946151676,0.23942281760528025,0.00349137595808483,-0.32284931282004464,-0.320960465029961,0.5,0.0,3.9072440853493537,3.907136822702701,0.008950606383033627,0.008951213217540343,0.0,8.045083621720687e-05,0.00010448919360110364,0.0
1626091656.5829618,8.61090935548685e-06,-1.7847771963520378e-06,5.69,4.53,3.246792630307027e-07,-3.0202722882677335e-06,1.402438998222351,0.0048828125,0.0146484375,0.13781336136848893,0.0034497435953671435,0.2032655293230117,0.003580026628103373,-0.3232562872582458,-0.32215188063444355,0.5,0.0,3.9090362041946927,3.9089309348037777,0.008930657725126526,0.008931431917889069,0.0,7.358526392696449e-05,9.128909783244874e-05,0.0
1626091656.656962,8.122794854021528e-06,-1.7738719087399576e-06,5.63,4.58,0.01512686163187027,-0.9892836213111877,57.5,-0.06494140625,-0.037109375,0.040951489149815556,-0.18687032381761984,0.10225789186579899,-0.19668467104428644,-0.5589431855984914,-0.43159132590775157,0.0,-1.0,3.911627412094503,3.911523873092188,0.010065252490017034,0.010065858631389608,0.0,0.0002583407617327462,0.00012203445241186454,0.0
1626091656.702962,7.869942880919477e-06,-1.7672420929882268e-06,5.63,4.55,0.010926789604127407,-0.9560341238975525,54.69512176513672,0.00341796875,-0.029296875,0.02903578099254391,-0.17656674213886553,0.06831100004222011,-0.20341057106267998,-0.7300403429281296,-0.5663236126806701,0.0,-1.0,3.9126962190502517,3.912592840183138,0.009833135740813527,0.009833593269060848,0.0,0.0002817504937904548,0.00019881693136870646,0.0
1626091656.7629619,7.610093795966062e-06,-1.7585802732412603e-06,5.58,4.49,0.012331865727901459,-0.9096253514289856,54.14634323120117,-0.03857421875,0.033203125,0.016906218263908746,-0.17632432700608303,0.03441180656755384,-0.22637274252829434,-1.0100311442670549,-0.8308595222547839,0.0,-1.0,3.914295382813046,3.9141920333883156,0.00959887642275208,0.009599149797650131,0.0,0.0002419540280319908,0.0002587137193547184,0.0
1626091656.8229618,7.347920986787636e-06,-1.7480072690310559e-06,5.55,4.41,0.0013993150787428021,0.049589674919843674,-0.060975611209869385,0.01220703125,-0.015625,0.013249283705574148,-0.17983036409604636,0.01909697182681136,-0.2508927008429012,-1.1635874850789527,-1.0415329213834132,0.0,-1.0,3.915760259334668,3.9156568930798468,0.010435982015471327,0.010436170632715198,0.0,0.000127867664834663,0.00021871711589627492,0.0
1626091656.882962,7.086836156493473e-06,-1.7356922849392944e-06,5.54,4.37,0.0008556130924262106,0.24649405479431152,1.2195122241973877,-0.009765625,0.01220703125,0.0068218689895073025,0.04725501325199482,0.005887702410237354,-0.0664512625510247,-1.184086752717049,-1.1685511057748277,0.0,1.0,3.917353886982568,3.917250498816526,0.010410161088153052,0.01041026110089861,0.0,9.290724389048716e-05,0.0001537312557667812,0.0
1626091656.948962,6.691636677598284e-06,-1.7145719657485593e-06,5.56,4.49,0.010892179794609547,0.9557533860206604,-53.04878234863281,-0.021484375,0.00390625,-0.0008609652121287875,0.1348066884816723,-0.0046252808173456355,0.15175435925950548,-0.8513337118014024,-1.0407855378472057,0.0,1.0,3.9188163288462694,3.9187129358709645,0.00979300275724372,0.009793036522613716,0.0,-0.00020406437774112796,-2.106665438407949e-06,0.0
1626091657.000656,6.48372071365706e-06,-1.7018105190739427e-06,5.59,4.51,0.0042374879121780396,0.5457461476325989,-49.024391174316406,0.021484375,0.0107421875,-0.0030969957408874373,0.14455563272776106,-0.008391481107334566,0.19512788515052532,-0.6221821244944659,-0.8479316781333998,0.0,0.0,3.9200038527530476,3.919900458530757,0.009840384847549906,0.009840401863491449,0.0,-0.0003805920778565305,-0.00017607358446727986,0.0
1626091657.0606558,6.269959255760703e-06,-1.6870618310196554e-06,5.65,4.48,9.379058383274241e-07,8.72470536705805e-06,1.1585365533828735,-0.02587890625,0.02587890625,-0.0028510854669764846,0.10322931576519286,-0.010237763459253826,0.19240877744377313,-0.5282067772039036,-0.5997932718747322,0.0,0.0,3.921516749012347,3.9214133539305425,0.009602824728662553,0.009602831709323037,0.0,-0.00035691420337104354,-0.0003336575092271024,0.0
1626091657.120656,6.054173208252881e-06,-1.6705951549643813e-06,5.66,4.5,9.379058383274241e-07,8.72470536705805e-06,1.402438998222351,0.005859375,0.00244140625,-0.001653037127360299,0.01576391310803011,-0.010355121863659531,0.05981590693372706,-0.5295748982590203,-0.5484295231583531,0.0,0.0,3.922588547974457,3.9224851532164657,0.010434988436479017,0.0104349924494893,0.0,-0.00029149769071771733,-0.00035165181120211565,0.0
1626091657.180656,5.8391903247708804e-06,-1.6526573329538786e-06,5.69,4.52,9.3504638698505e-07,8.698105375515297e-06,1.3414634466171265,-0.00732421875,0.01123046875,-0.0008108635588725748,0.003145546722607431,-0.00869280773952048,0.00851408968159659,-0.5302418094772071,-0.5358912183473458,0.0,0.0,3.9235481384640165,3.9234447450955647,0.010446809732618877,0.010446812012686442,0.0,-0.00022553479427559045,-0.00031616398937340514,0.0
1626091657.258656,5.504737104727323e-06,-1.6212285571625176e-06,5.66,4.51,0.03714276850223541,-0.16524523496627808,-1.8292683362960815,0.01318359375,-0.046875,0.043759490774160734,0.0011054603794393655,0.004228789371113095,0.0014024302808409315,-0.5303726544530888,-0.5321595720680078,0.5,0.0,3.9250222745461807,3.924918882973569,0.010070679457213365,0.010070681802901663,0.0,-0.00014411309425050125,-0.000217676610919723,0.0
1626091657.3006558,5.3339843828121474e-06,-1.604559541083204e-06,5.67,4.54,0.4169836640357971,0.04957860708236694,-0.060975611209869385,-0.03173828125,0.3330078125,0.11330319144519455,-0.003580286884431388,0.05632330181015285,-0.005503986081352661,-0.541802261147479,-0.5352926540249126,0.5,0.0,3.925773692632963,3.9256702990688397,0.009731118599823872,0.00973113382722996,0.0,-0.00018978263077279822,-0.0001924231002007288,0.0
1626091657.3626559,5.1568789246800725e-06,-1.5856580633029754e-06,5.71,4.5,0.43608126044273376,0.03265596553683281,-0.6097561120986938,0.2041015625,-0.40625,0.1626752914379625,0.02701188993946139,0.1111949918564887,0.021785751028424307,-0.5344002324898626,-0.5328220634713637,0.0,0.0,3.9266261499010695,3.926522788532185,0.00959053926408677,0.009590616350803195,0.0,-6.570132015571917e-05,-0.00015846761636873394,0.0
1626091657.420656,4.979923665734796e-06,-1.5656522973486199e-06,5.76,4.45,0.0550590455532074,-0.00014416704652830958,0.4878048896789551,-0.04541015625,0.220703125,0.19397589778384045,0.010929184181127965,0.15901073495953869,0.016509861104675085,-0.5301427459381721,-0.528692426600722,0.0,0.0,3.9276746518377386,3.9275714570982725,0.010419371936567886,0.010419567193047983,0.0,3.545665210617536e-05,-6.783492607440744e-05,0.0
1626091657.480656,4.803478996834518e-06,-1.5443655643325828e-06,5.78,4.39,1.2146167591708945e-06,-1.1298760000499897e-05,1.2195122241973877,-0.00390625,0.0205078125,0.1213818528889205,0.0035082005215671514,0.1667011816160749,0.006416761148694977,-0.5299010031440524,-0.5276811061474519,0.0,0.0,3.929074209794097,3.928971538275927,0.010438809791154295,0.010439192923246377,0.0,4.01677126226506e-05,8.598157161221769e-06,0.0
1626091657.5506558,4.533713577789973e-06,-1.509699905435765e-06,5.77,4.31,0.004453804809600115,0.9068640470504761,-51.64634323120117,-0.00927734375,-0.15966796875,0.03716138106075267,0.19746519558864745,0.08578814652961296,0.20166148562411548,-0.3553951309356013,-0.4265293634744514,0.0,1.0,3.9313433465053795,3.9312413335952363,0.01006847542823882,0.010068831461325563,0.0,-0.00022766683700398051,-2.0111444343580862e-05,0.0
1626091657.6006558,4.391992584589418e-06,-1.4903331945114754e-06,5.76,4.3,0.008669249713420868,0.7608322501182556,-50.3658561706543,-0.037109375,0.06591796875,0.019498319933775668,0.1781168406006864,0.05036926381369236,0.20982149579391648,-0.1394660217719128,-0.2551952839789026,0.0,0.0,3.932646060422536,3.932544211449117,0.009732665362906689,0.009732922942738314,0.0,-0.0005174367493398248,-0.00025780652960277826,0.0
1626091657.660656,4.246526076496206e-06,-1.469270567704947e-06,5.71,4.32,1.9070297696544003e-07,1.7739811255523819e-06,1.585365891456604,0.0,-0.0087890625,0.00980812586386097,0.10755375470609435,0.025831364396783508,0.17894372768239267,-0.03637376728604194,-0.09042037753408455,0.0,0.0,3.9339598083271365,3.933858042874601,0.009596260277340304,0.009596430308451314,0.0,-0.0005543765048336915,-0.0004564067008963103,0.0
1626091657.720656,4.099896694294854e-06,-1.4468669990499573e-06,5.7,4.3,9.053660221525206e-08,8.42200904571655e-07,1.402438998222351,-0.00048828125,0.00830078125,0.005646876637539914,0.015694159849874316,0.012316796115424357,0.055577219772337885,-0.03838767561410826,-0.050091134903980025,0.0,0.0,3.9350193424858575,3.9349176101138434,0.010429703479127092,0.01042982193730836,0.0,-0.00043465222032266446,-0.0004912569100887636,0.0
1626091657.7806559,3.953975839768323e-06,-1.4234286712245354e-06,5.69,4.31,9.026057767869133e-08,8.396332304982934e-07,1.3414634466171265,0.00244140625,0.00830078125,0.00277490345998221,0.003155591466769147,0.0016260443290452363,0.00792335635197591,-0.039130081459290485,-0.04155699793952134,0.0,0.0,3.935985813137023,3.9358840835057043,0.010443917359048907,0.01044398099418636,0.0,-0.0003183123493984021,-0.00043624502041938925,0.0
1626091657.8626559,3.725122750641551e-06,-1.3840429468426387e-06,5.68,4.33,0.0024796563666313887,-0.04985600337386131,-14.695122718811035,0.06787109375,0.04443359375,0.00012969575285378234,0.1516384241511649,-0.004354876658006117,0.14595902465127486,0.045523540491305886,0.006615010712531216,0.0,0.0,3.937408331400405,3.9373065976108244,0.009786773963027235,0.00978679609726539,0.0,-0.00021837783390517865,-0.00029965588920572513,0.0
1626091657.900656,3.6099903194810993e-06,-1.3637647818026563e-06,5.67,4.34,5.963225930827321e-07,-5.547186447074637e-06,1.3414634466171265,-0.00146484375,0.00341796875,0.00016740577117066956,0.02833666421431945,-0.005435296554291677,0.07096584563756764,0.07462983035075267,0.057188172955113505,0.0,0.0,3.938435663307846,3.938333930073586,0.009557327091671853,0.009557338397702075,0.0,-0.00014739920065717375,-0.00022499284934535038,0.0
1626091657.960656,3.4913933713657792e-06,-1.3418648905802732e-06,5.66,4.33,0.09264431148767471,-0.04972463473677635,7.804878234863281,-0.0078125,-0.0556640625,0.04479071584031835,0.008896776539895354,0.010328376595350412,0.018075067418086933,0.07406247154086117,0.06969652133341281,0.5,0.0,3.9392126268381613,3.9391108950930187,0.00899040144293197,0.00899040696215368,0.0,-0.00010228059653666517,-0.00015751867380418922,0.0
1626091658.0206559,3.3715479586503578e-06,-1.3187312089628095e-06,5.65,4.31,0.48466408252716064,0.00014409597497433424,-1.3414634466171265,-0.080078125,1.52099609375,0.11262160631907615,0.02039393551483163,0.061827212918309865,0.008547999457472243,0.06184780238102648,0.06887321601698103,0.5,0.0,3.9403270605036598,3.940225342962145,0.010435955636984455,0.01043598208936812,0.0,-0.00019106830330641207,-0.00014270511775373943,0.0
1626091658.0806558,3.252063670641162e-06,-1.2946891321801756e-06,5.61,4.23,0.5116428136825562,0.033006515353918076,-1.585365891456604,0.03759765625,-0.353515625,0.17239754007890767,0.025112900719528108,0.11448465240275842,0.024997692117978594,0.07027271863677914,0.07284792096247793,0.5,0.0,3.9411541047813983,3.941052514208733,0.010288871987101152,0.010288961472846027,0.0,1.957360404193085e-05,-9.980833528023678e-05,0.0
1626091658.154656,3.0677494840235473e-06,-1.2559633452112539e-06,5.55,4.02,0.3720560669898987,0.032420117408037186,-0.6097561120986938,0.087890625,0.0068359375,0.23835669261154985,0.01065982173647985,0.20788226562244974,0.011717032266173145,0.07396708131398368,0.07520155673140991,0.0,0.0,3.942978351395191,3.9428778925131422,0.009483305257904152,0.009483664137476967,0.0,0.0001226966488345209,8.250595451911868e-05,0.0
1626091658.200656,2.972270313341313e-06,-1.2351240350612346e-06,5.51,3.89,0.0017916772048920393,0.01666676439344883,1.585365891456604,0.0068359375,0.08154296875,0.18545203237673555,0.003812995069741094,0.23480656184349624,0.005615891870972224,0.07476308525989041,0.0759891593869814,0.0,0.0,3.945206503954071,3.945108786311938,0.010362104478978664,0.010362816143426172,0.0,0.00010950101723128233,0.0001296614387403156,0.0
1626091658.2606559,2.874147897124444e-06,-1.2128511537497987e-06,5.49,3.86,0.00982020702213049,0.34722045063972473,1.0365853309631348,0.001953125,-0.0283203125,0.10862026779200305,0.1460987494694445,0.19631365393528613,0.050173024975365126,0.09617380138311352,0.08013518124506211,0.0,1.0,3.9465948172921905,3.9464990316569866,0.009949962142465164,0.009950767732200426,0.0,7.907075337110748e-05,0.0001378925710547714,0.0
1626091658.3206558,2.775146831953184e-06,-1.1895354499136476e-06,5.48,3.82,0.00660353060811758,0.9260371327400208,-53.353660583496094,0.00732421875,0.07080078125,0.059916163582693444,0.17690046675095009,0.1253312779991565,0.17720024337149323,0.24202255136027873,0.17371186250641726,0.0,1.0,3.9481856521330974,3.948091228112535,0.009738605306285163,0.00973929331877408,0.0,-0.00035567331953907156,-2.4465680693163433e-05,0.0
1626091658.380656,2.6765553687395396e-06,-1.1654950353181047e-06,5.52,3.83,0.009133346378803253,0.972114622592926,-54.085365295410156,-0.02197265625,0.00927734375,0.031889964226885496,0.1627987393395582,0.0809476247427777,0.19511629550142837,0.46073534669115085,0.33674518789120766,0.0,0.0,3.949615330262856,3.949521447271297,0.010538652911318783,0.010539206625841145,0.0,-0.0008344010297556529,-0.0003651168310191762,0.0
1626091658.446656,2.527317530597088e-06,-1.1281368256035016e-06,5.53,3.87,4.758661020787258e-07,-4.426661234901985e-06,1.402438998222351,-0.005859375,0.00537109375,0.008386698516761073,0.025049790347549835,0.019871792566145376,0.06425475395202064,0.6253069940843168,0.5995017756397009,0.0,0.0,3.95179828990199,3.9517044780255297,0.01006195929380583,0.01006219376452994,0.0,-0.0006697615750350301,-0.0008021474380861004,0.0
1626091658.500656,2.4478829741829114e-06,-1.1073366544118452e-06,5.54,3.9,4.758661020787258e-07,-4.426661234901985e-06,1.2804877758026123,-0.00048828125,0.0048828125,0.004739784250526016,0.005089525797491333,0.005929567937568433,0.01701368363219044,0.6243914365396387,0.6156827359575505,0.0,0.0,3.952558586773569,3.9524647703997053,0.00980620948778316,0.009806349785816319,0.0,-0.000520128694479103,-0.0007333741342735416,0.0
1626091658.5606558,2.366480851783081e-06,-1.0853134500861266e-06,5.53,3.88,0.004294769372791052,-0.03297123312950134,7.682927131652832,0.00341796875,-0.02978515625,0.04762259748476432,0.0023135913371686878,0.007329805557817312,0.004042631129374,0.623835435789179,0.620578782968377,0.5,0.0,3.9535180998385404,3.9534242787514766,0.009777668304696181,0.009777740007763514,0.0,-0.00039673581412311176,-0.000582403514820935,0.0
1626091658.620656,2.2845273985306767e-06,-1.0624435245469812e-06,5.53,3.88,0.32796725630760193,0.03286855295300484,1.8902438879013062,0.091796875,-0.26904296875,0.11256485020282153,0.002457478372458749,0.05738788084792252,-0.0031787824881127765,0.6121088505910283,0.6176980787358244,0.5,0.0,3.9542685153365125,3.9541747042020594,0.009434425069732697,0.00943447887000277,0.0,-0.00038069672325742723,-0.0004793130704151551,0.0
1626091658.680656,2.2030420496205028e-06,-1.0390245999599222e-06,5.43,3.82,0.5190556645393372,-0.0006941900355741382,-0.792682945728302,0.0712890625,-0.07373046875,0.16546949742163694,0.011001859846009545,0.10231897340687783,0.008631123687622984,0.6186991703183964,0.6184010390847956,0.5,0.0,3.955213128920265,3.9551193651625147,0.010441992550203928,0.010442091692769074,0.0,-0.00013239519390221687,-0.00035799727631657507,0.0
1626091658.758656,2.0764698748198107e-06,-1.0015062129268333e-06,5.31,3.66,0.49283868074417114,-0.03286435455083847,-0.9146341681480408,-0.0625,0.09619140625,0.2406699383130665,0.010498812936742397,0.2067987160114066,0.014044749115522007,0.6240682527028065,0.6264947811637737,0.0,0.0,3.9572888880440944,3.9571955461714157,0.010074146912372373,0.010074535386295522,0.0,6.264351265841106e-05,-3.7464336123329667e-06,0.0
1626091658.8006558,2.0119368183521977e-06,-9.818392173343204e-07,5.18,3.57,0.2295968383550644,-0.01633543148636818,1.585365891456604,0.060546875,0.25048828125,0.2315127956198621,0.024448193433761138,0.23120893905745862,0.020938589004522466,0.6256247736055444,0.627455812566958,0.0,0.0,3.9582333679498536,3.9581403522461005,0.009438193781054018,0.009438745027016873,0.0,5.9767618292424636e-05,4.780451014153261e-05,0.0
1626091658.8626559,1.945045285817178e-06,-9.608099209642381e-07,5.11,3.54,5.329653731678263e-07,4.957817509421147e-06,1.3414634466171265,-0.0166015625,-0.0078125,0.15656135471213714,0.0073463192334342715,0.2203319848349735,0.010885610280814279,0.6263743122755866,0.6281436252753301,0.0,0.0,3.9596376012774703,3.9595451472324728,0.00896369042469702,0.008964432995879377,0.0,7.191852740645729e-05,8.051614653148788e-05,0.0
1626091658.920656,0.0019307029028851875,-9.392330204348896e-07,5.07,3.53,0.0004160590178798884,-0.033609237521886826,1.3414634466171265,-0.001953125,0.0078125,0.09023351926911002,0.0035643907872173215,0.1558422228720877,0.004551693129485388,0.6262563222666557,0.6276631202808552,0.0,-1.0,3.9612307336265262,3.961138881673395,0.008974093305698134,0.008974848655230544,0.0,8.983432137778293e-05,0.00010959188366576758,0.0
1626091658.980656,0.00538660844291739,-9.045832457962254e-07,5.07,3.51,0.010842825286090374,-0.7774879932403564,30.609756469726562,0.09423828125,0.1728515625,0.04580036682247416,-0.1713445123491212,0.1101158639687029,-0.1159968765048968,0.5387074325334256,0.6019852942176863,0.0,-1.0,3.962357730484308,3.9622661608147633,0.010292804352695042,0.01029347029003572,0.0,0.00018938915803536738,0.00014489806412305742,0.0
1626091659.0506558,0.01200397505581576,-8.579823271078212e-07,5.1,3.59,0.01481994241476059,-0.9565813541412354,57.0121955871582,0.0498046875,-0.01220703125,0.018242261723326048,-0.15434610489361095,0.031427712298941396,-0.20373788166483525,0.10126851824113303,0.25898996602695695,0.0,-1.0,3.964917036417705,3.964825711017365,0.010078964147179048,0.010079253374227765,0.0,0.00032524689472689073,0.00031630979794571544,0.0
1626091659.1006558,0.01690850069357305,-2.546601145126448e-06,5.14,3.58,0.011940564028918743,-0.8766925930976868,55.914634704589844,0.03271484375,0.09814453125,0.013111687379483787,-0.16649071339079943,0.01497767813007451,-0.2351920712807089,-0.12972707704895323,0.01760337582832319,0.0,-1.0,3.966197569237978,3.966106288037958,0.009813710222695613,0.009813889182890624,0.0,0.0001587072387614506,0.00028568183995419325,0.0
1626091659.160656,0.02301433601586511,-6.859128219946437e-06,5.04,3.6,4.0462506234462126e-08,3.7639540551026585e-07,2.0731706619262695,-0.01220703125,0.0009765625,0.008658710038575067,-0.11649811376042882,0.007765202197373259,-0.24292396389843263,-0.25019383731997563,-0.16170306588360053,0.0,0.0,3.967225301363453,3.967134035654127,0.008975358409585663,0.008975474374375892,0.0,0.00012465827411161322,0.00021333034095893775,0.0
1626091659.220656,0.028319095447293226,-1.2692490019442534e-05,5.02,3.59,4.033951839232941e-08,3.752513464405638e-07,1.2804877758026123,-0.0048828125,0.0126953125,0.0049895343346879895,-0.012892009419313384,-0.000368152366240368,-0.046972963135910296,-0.24981817141653007,-0.23873348839139666,0.0,0.0,3.9686745277035103,3.9685832750547894,0.008963942602573646,0.008964002325444677,0.0,0.00010910601535413955,0.00016473245608460897,0.0
1626091659.2806559,0.03338774264228019,-1.8264202491068248e-05,5.09,3.59,4.058624369918107e-08,3.775464563204878e-07,1.3414634466171265,0.0048828125,0.0048828125,0.002445593918761936,-0.0014172639628072716,-0.0053666214478357,-0.008152069146112955,-0.24932130911215566,-0.24593337537707452,0.0,0.0,3.969585606164384,3.9694943583763,0.010465696948959241,0.010465735451064852,0.0,8.722656293734768e-05,0.00014081965037017678,0.0
1626091659.342656,0.041192109940794926,-2.2911554433577585e-05,5.11,3.6,4.0462506234462126e-08,3.7639540551026585e-07,1.3414634466171265,-0.00439453125,0.005859375,0.0007809849648465751,0.0006954079856442655,-0.007767083890621448,0.0004872324761996841,-0.2491950895856989,-0.24811599206560553,0.0,0.0,3.971249496867447,3.971158254707684,0.009936090865227938,0.009936100353839421,0.0,6.028518488468486e-05,8.628174509324719e-05,0.0
1626091659.400656,0.04598663224911729,-1.8711990952178114e-05,5.19,3.61,4.058624369918107e-08,3.775464563204878e-07,1.3414634466171265,0.00048828125,0.0087890625,0.00044417669197843496,0.000853150294440732,-0.007505377883882388,0.0007148621315275527,-0.24918755871129009,-0.2482874953961518,0.0,0.0,3.9719698381777353,3.9718785986902017,0.009737666728034016,0.009737672034271621,0.0,4.967845769317965e-05,6.856104817299617e-05,0.0
1626091659.460656,0.051341663652826074,-1.0541469406944571e-05,5.23,3.61,4.058624369918107e-08,3.775464563204878e-07,1.3414634466171265,0.0,0.0107421875,0.0002512156688472481,0.0005407797295205642,-0.006619406254940083,0.0005493215029970792,-0.24919907935626412,-0.24837860391523886,0.0,0.0,3.9727174881348897,3.9726262514997606,0.00919010506029941,0.009190108589385146,0.0,4.046329604902999e-05,5.378251640700716e-05,0.0
1626091659.52014,0.05694726398467745,1.4147658859522976e-06,5.25,3.61,4.058624369918107e-08,3.775464563204878e-07,1.402438998222351,-0.00537109375,0.015625,0.00014198887481132823,0.0007582261977552538,-0.005831732190979576,0.0006174681384496715,-0.24919229398465143,-0.24848017936979636,0.0,0.0,3.9734604862788028,3.97336925187687,0.008903571215280305,0.008903574178547537,0.0,3.262602689944767e-05,4.162508644803239e-05,0.0
1626091659.5801399,0.06250706176097179,1.4905661925635775e-05,5.18,3.61,0.009749090299010277,-0.16484113037586212,5.853658676147461,0.03076171875,0.0009765625,6.954904892280155e-05,-0.08162216675537202,-0.005900412012332884,-0.041528770551883795,-0.25154881702833737,-0.252383141638413,0.0,-1.0,3.97455494899574,3.974463715684141,0.010396102922140368,0.01039610619659192,0.0,2.449995643405134e-05,3.074674845719936e-05,0.0
1626091659.65414,0.07042384708536079,3.427035020866037e-05,5.1,3.6,1.0449236498288883e-07,9.720220077724662e-07,1.3414634466171265,0.00146484375,0.01123046875,0.0005079512573261226,-0.07975568919638282,-0.003459969315203009,-0.09822364443861833,-0.38169824810185987,-0.3389749360173135,0.0,0.0,3.9762469481964553,3.9761557172633135,0.009933478355254866,0.00993348185556871,0.0,1.9357739138473698e-05,8.67782113947809e-06,0.0
1626091659.70014,0.07446642906066084,4.1339515075859567e-05,5.11,3.61,1.0481191736744222e-07,9.749945775183733e-07,1.3414634466171265,0.01318359375,0.0068359375,8.283815979268862e-05,-0.015466278574154316,-0.0031031777348195706,-0.0432332940397194,-0.3782006470929368,-0.36137277462968737,0.0,0.0,3.9768352032651295,3.9767439730480203,0.009393092344604283,0.009393095735051947,0.0,1.552179825304056e-05,1.0516500382889472e-05,0.0
1626091659.76014,0.07821179143736691,4.612796593258548e-05,5.05,3.6,0.08262695372104645,0.14847958087921143,-5.182927131652832,0.0654296875,0.02734375,0.06617474907103972,-0.0015005183110770584,0.012035913714866614,-0.0061158505477876355,-0.3683375596907219,-0.3712085199060417,0.5,0.0,3.9778123577142925,3.9777211279971922,0.009197465574748785,0.009197469050695267,0.0,2.196234487267134e-05,9.115748947147882e-06,0.0
1626091659.82014,0.08158027190483458,4.887983793745329e-05,5.11,3.6,0.4750901758670807,-0.017115699127316475,1.6463414430618286,-0.279296875,-0.15478515625,0.09734657837550074,0.01211273822772919,0.05088008665880554,0.008203138280574118,-0.36569069893553807,-0.3689937941596654,0.5,0.0,3.9786997117232166,3.9786084846295102,0.010363805137647465,0.010363822109662834,0.0,9.646265188994433e-05,3.994407137037073e-05,0.0
1626091659.88014,0.08452294853277906,4.951319779932729e-05,5.18,3.57,0.505939245223999,0.016300177201628685,0.7317073345184326,-0.146484375,0.02734375,0.17785529323864305,-0.007040961596778662,0.10327033520005377,-0.002658976042801015,-0.3738731655194558,-0.36893813205132475,0.5,0.0,3.9795413809638616,3.9794502169004913,0.010441946293487075,0.010442011797222895,0.0,-0.00023306568709173541,-1.8375780756704347e-05,0.0
1626091659.94614,0.08840588547454876,4.948223802728185e-05,5.08,3.37,0.46123409271240234,-0.04985044524073601,-0.3658536672592163,-0.13818359375,0.091796875,0.2394506357995748,0.0014124487211208813,0.20981920453586947,0.009589529582640503,-0.3750587527634197,-0.3725312272569579,0.0,0.0,3.981590840484199,3.9815006051315547,0.009639628768241908,0.009639986494566892,0.0,-0.00021514868104194088,-0.00020691381692389854,0.0
1626091660.00014,0.0900356349761913,4.937678606144138e-05,5.16,3.24,0.07838556170463562,0.0005449177115224302,0.4268292784690857,-0.01123046875,0.16259765625,0.20798943167988337,0.00019615326645185512,0.23528511394655618,0.0017694184665149237,-0.37611475065551325,-0.37406450178424067,0.0,0.0,3.9829231688930284,3.9828340584334083,0.009399511446539015,0.009400093019841875,0.0,-0.00019299041423579823,-0.00022414420830201706,0.0
1626091660.06014,0.09113236479156263,4.870712866046189e-05,5.18,3.18,1.1279072396064294e-06,1.0492160981812049e-05,1.2804877758026123,0.0009765625,0.01904296875,0.12768402648137483,0.040625988589321364,0.20603613321342534,0.0025539661931442146,-0.375518227221259,-0.3753164546621804,0.0,1.0,3.9843139481384786,3.9842261853637044,0.008954739692934335,0.00895548067273177,0.0,-0.00014544088382904526,-0.0002057149397649834,0.0
1626091660.12014,0.09136756439584055,4.725412588297072e-05,5.13,3.15,0.004362029489129782,0.7277538180351257,-34.024391174316406,-0.0185546875,-0.091796875,0.07207142036230395,0.20124996562905959,0.13763465328507526,0.1619799269367005,-0.33299646951261785,-0.343707828549223,0.0,1.0,3.985849949213279,3.9857634017401677,0.008962265992870611,0.008962950098214779,0.0,-0.00013905643484434747,-0.00016643478270309182,0.0
1626091660.18014,0.09043329961401608,4.493550388097441e-05,5.17,3.13,0.008757381699979305,0.9425740838050842,-54.39024353027344,-0.05322265625,0.02392578125,0.03353188598814753,0.16728784034850322,0.09454309722204016,0.1843240049411814,-0.10168401192604623,-0.24370071961037743,0.0,1.0,3.987254330105415,3.987168356370298,0.010289876343308314,0.010290453605223814,0.0,-0.0006110766512660831,-0.0002737035894572375,0.0
1626091660.2581398,0.08716629480352224,4.103573436532698e-05,5.05,3.04,0.008795314468443394,0.9428257942199707,-52.92683029174805,0.099609375,-0.02734375,0.00640769974043174,0.17198728252544562,0.024080842220800272,0.21855764490130225,0.34255639468438803,0.14129701873251327,0.0,1.0,3.9899728318714267,3.9898872064497617,0.010388959999853564,0.010389220118964943,0.0,-0.0010880282526026025,-0.0008401736009168669,0.0
1626091660.30014,0.08352406338557147,3.84869355453731e-05,5.04,3.03,4.5809096604898514e-07,4.26131146014086e-06,1.1585365533828735,0.02734375,-0.017578125,0.002167239772534699,0.16247831989902028,0.007356261687908533,0.24742358284454363,0.48826849087947527,0.3783647787069077,0.0,1.0,3.991124856917093,3.9910392380474375,0.009365215748115753,0.009365368511098432,0.0,-0.0009652284627505344,-0.0010087920061266384,0.0
1626091660.3601398,0.0781743364931736,3.611578152116727e-05,5.04,3.03,0.008627468720078468,0.7600118517875671,-8.59756088256836,-0.048828125,-0.025390625,0.0011123700615014687,0.26597081435069553,-0.0031811936798291,0.23617080418197806,0.5077568826120038,0.49671110442841515,0.0,1.0,3.9929019108399237,3.9928163037450735,0.010250920128886206,0.010251009994026304,0.0,-0.0007577130240837876,-0.000980734841826041,0.0
1626091660.42014,0.07137229717737699,3.3906041710543104e-05,5.05,3.04,0.010863088071346283,0.9534118175506592,-54.45122146606445,-0.04248046875,0.06640625,-0.0008092388755418631,0.2844194587899424,-0.006918667841369692,0.29331558869495383,0.6797364204742304,0.6319746922262955,0.0,1.0,3.994441759192139,3.9943561525529994,0.008913241674650787,0.00891328352577221,0.0,-0.0006626683887616426,-0.0008310951726968817,0.0
1626091660.48014,0.06352161704541516,3.17760500043557e-05,5.06,3.03,0.008428413420915604,0.9039599299430847,-51.95122146606445,-0.06787109375,0.0263671875,-0.0034058320166361882,0.2710202049249944,-0.01058383552524132,0.31558363568290254,0.9522010076011748,0.8146586976787256,0.0,1.0,3.9964548293960163,3.9963692235926813,0.010361747066097807,0.010361772422585146,0.0,-0.0006931021451806946,-0.0007906231492383061,0.0
1626091660.55014,0.050852507073621524,2.8441119568811145e-05,4.99,3.06,2.6460867275091005e-07,-2.4614762423880165e-06,1.585365891456604,0.00830078125,0.02685546875,-0.0030491485091727203,0.15944317488182405,-0.012325787030394749,0.22021997428315343,1.2162297575579681,1.2020541189023717,0.0,0.0,4.0004411029277165,4.000355490834842,0.010385409733948083,0.010385415563150542,0.0,-0.0005205793088042253,-0.0006976687539875062,0.0
1626091660.6001399,0.0434121576265765,2.53425784534591e-05,4.98,3.07,3.5467922998577706e-07,3.2993418699334143e-06,1.3414634466171265,-0.01904296875,0.00732421875,-0.0017402468576135218,0.04173228224090258,-0.010160675821897308,0.14726648077414028,1.213012123669016,1.2297212445688273,0.0,0.0,4.001401643084325,4.001316028888042,0.009362715433957877,0.009362718223557923,0.0,-0.0003911220108922113,-0.0005695527665516021,0.0
1626091660.66014,0.03557504157615771,2.2150924871737802e-05,4.96,3.1,3.5467922998577706e-07,3.2993418699334143e-06,1.3414634466171265,-0.0068359375,0.0068359375,-0.0010087727140461681,0.012253617847480906,-0.00787505509368338,0.02353953871063931,1.2100512980973355,1.2277449626941572,0.0,0.0,4.002504589694378,4.002418971178942,0.009166616737181528,0.009166618508205925,0.0,-0.00028361619128597197,-0.00040651877484252746,0.0
1626091660.72014,0.027664487260037885,2.048539587938137e-05,4.96,3.11,3.5467922998577706e-07,3.2993418699334143e-06,1.3414634466171265,-0.01318359375,0.01220703125,-0.0005486840880449915,0.0026556628328488225,-0.006639775933738872,0.004826807038873199,1.2095782709940275,1.2230452491981794,0.0,0.0,4.003479156464549,4.003393534703927,0.00997533036508271,0.009975332315599265,0.0,-0.00019160377862203096,-0.00027908229263837647,0.0
1626091660.78014,0.019925632556038134,2.034525668832622e-05,4.95,3.1,3.535978976287879e-07,3.2892828585318057e-06,1.3414634466171265,0.0029296875,0.013671875,-0.00027949551084428115,0.0013714151819990746,-0.005405581817153219,0.0009917521752161854,1.209335115896134,1.219154788601136,0.0,0.0,4.004356180659965,4.004270557103901,0.010267798995437217,0.010267801321389906,0.0,-0.00010845619776087485,-0.00017168506400007402,0.0
1626091660.84214,0.008554467216557095,2.3652111866382707e-05,4.95,3.06,0.007571892347186804,-0.8407946228981018,49.39024353027344,0.01171875,0.03125,0.0017469631223863019,-0.21014382758275246,-0.002751997251430931,-0.20279134000147245,1.0721215537595956,1.1409619806598077,0.0,-1.0,4.0061111094987325,4.006025484618842,0.009811398026026723,0.009811400860626913,0.0,-7.572931472197047e-05,-4.641010698380671e-05,0.0
1626091660.90014,0.0027968366952252806,3.060422244676041e-05,4.99,3.0,0.010556108318269253,-0.9264463186264038,54.20731735229492,0.02880859375,-0.0419921875,0.0026246643963651183,-0.18522869616115561,-0.0012723534867059415,-0.20922170088307868,0.9233240671511267,1.0252782932569569,0.0,-1.0,4.00706469182747,4.006979066636623,0.009547051086771313,0.009547053911775252,0.0,-0.00011494459139370544,-5.047907354864323e-05,0.0
1626091660.96014,-0.0027553179005291033,4.0705653727537974e-05,5.02,3.01,0.0024785164278000593,0.049866609275341034,0.9756097793579102,0.0146484375,-0.0498046875,0.0046317710760317085,-0.006494292804893512,0.0011523678057262729,-0.147413868252027,0.6641074217550267,0.7893985767119495,0.0,1.0,4.008602691883965,4.008517066032928,0.009428308372662198,0.009428311202857136,0.0,-0.00030649483325556533,-0.00016299718630899242,0.0
1626091661.02014,-0.007961673604564906,5.146334090304307e-05,5.04,3.02,0.007397098932415247,0.6575981974601746,-23.658536911010742,-0.10107421875,-0.02392578125,0.002100653982416654,0.12491246095753351,0.0014159240544292459,0.005937659152479305,0.6812261223586787,0.719906419826364,0.0,1.0,4.0095956128594805,4.009509986392623,0.010445231385725272,0.010445234321623014,0.0,-0.0002129084157077155,-0.00018765341682867488,0.0
1626091661.0801399,-0.012732472894621698,6.127359532261456e-05,5.06,3.01,0.012274001725018024,0.9042370319366455,-46.158538818359375,-0.01123046875,0.02587890625,-0.0009511756176882765,0.11353069945036953,6.448270030312309e-05,0.10263580978980619,0.8347267232323354,0.7570173882032188,0.0,1.0,4.010423682736367,4.010338056208114,0.010292812178582161,0.01029281491328472,0.0,-0.000253833768284617,-0.0002025016754746209,0.0
1626091661.15414,-0.019588894202336875,7.570723338270128e-05,4.98,3.07,0.0021653389558196068,-0.016619933769106865,4.207317352294922,0.013671875,-0.01416015625,-0.003005346196300479,0.05406758989984527,-0.0036448410061393566,0.1494240218725315,1.202861760343612,1.0751859149276615,0.0,0.0,4.01270419679534,4.012618570159193,0.010379599008745253,0.010379601145754562,0.0,-0.0003247197529370338,-0.0003216561276677782,0.0
1626091661.20014,-0.02268404339155957,8.116040073043033e-05,4.95,3.11,0.027231916785240173,-0.14867830276489258,1.4634146690368652,-0.00927734375,0.00927734375,0.04989278752156887,0.006286040572429243,8.116043131211785e-05,0.044313824322215034,1.2057913435086953,1.16059632069356,0.5,0.0,4.013407455612179,4.013321828889183,0.00936222712780109,0.009362228886414409,0.0,-0.00021409312422330593,-0.00028615810778793305,0.0
1626091661.26014,-0.02552518884186572,8.561062031130735e-05,4.94,3.15,0.39677613973617554,0.03305746987462044,-1.8902438879013062,-0.02783203125,0.0546875,0.10515985969481689,0.002478785817174223,0.049774452456875104,0.005027101176613537,1.193222994925931,1.1783037582352385,0.5,0.0,4.014161721360002,4.014076093652321,0.008903046143642266,0.008903055526989409,0.0,-0.00024309314550141693,-0.00024028988741119087,0.0
1626091661.32014,-0.02807289644062889,8.910271901824994e-05,4.9,3.17,0.5287237763404846,0.016398116946220398,0.3048780560493469,0.1650390625,0.36572265625,0.15056985964224867,0.015257496115102081,0.10347950347324684,0.008880081543838077,1.1997632052635516,1.1864903870956345,0.5,0.0,4.015324434417391,4.015238729994646,0.010431632061632699,0.010431698343683321,0.0,-6.79003167981125e-05,-0.00019244636504301853,0.0
1626091661.38014,-0.030308827317895852,9.195201050270235e-05,4.82,3.13,0.49330005049705505,0.016936849802732468,0.060975611209869385,0.11474609375,0.22412109375,0.21518392643277562,0.01496364656676222,0.16029783605624393,0.01966050691885588,1.204939349984151,1.1962189686001563,0.5,0.0,4.016265379923387,4.016179394379322,0.010204165870303367,0.010204337347254004,0.0,0.0001310493039057659,-4.342588008611697e-05,0.0
1626091661.44614,-0.03339203091370241,9.469919460574068e-05,4.6,3.03,0.06838677078485489,0.01661544479429722,1.4634146690368652,0.1025390625,0.18408203125,0.22469013668784146,0.0008416488552239458,0.2385890000719796,0.01433878482711582,1.2066910480385153,1.2066480687800074,0.0,0.0,4.018687983145405,4.018600169749104,0.009586937473287654,0.009587491502949654,0.0,0.0001059917132826291,0.00013052978629694376,0.0
1626091661.50014,-0.03466264565173925,9.181159940063646e-05,4.52,2.97,1.6826530213620572e-07,1.5652586853320827e-06,1.2804877758026123,0.0,0.00146484375,0.14235477344325184,0.0020633109395799157,0.22199101348909206,0.001416470033112259,1.2064317306574832,1.2070359232938295,0.0,0.0,4.020116630767721,4.0200272954540495,0.009217529420827299,0.009218266379488069,0.0,0.00010831760076540117,0.00013868328968624883,0.0
1626091661.56014,-0.035705252247843884,8.481354135415487e-05,4.49,2.94,1.6826530213620572e-07,1.5652586853320827e-06,1.3414634466171265,0.0068359375,0.01025390625,0.08290532488753005,0.0012721487125303453,0.16601348238098868,0.0015444815421041388,1.206355855193976,1.2067772906203407,0.0,0.0,4.021388431266716,4.021297810316799,0.008863936046761845,0.008864682348103411,0.0,0.00010755943413885513,0.000140520072814681,0.0
1626091661.62014,-0.03651454386869646,7.442503758515902e-05,4.46,2.93,1.6877986297458847e-07,1.5700453559475136e-06,1.3414634466171265,-0.00439453125,0.01220703125,0.04511054543376639,0.0009271795650029149,0.11081682595893629,0.001044072876251415,1.2063718206977208,1.2066881633412054,0.0,0.0,4.022398513314507,4.022307249047147,0.008826134873673156,0.008826745249649071,0.0,0.00010861494886370254,0.00013884973009192726,0.0
1626091661.68014,-0.037117714003572666,6.369754554650136e-05,4.47,2.93,1.6826530213620572e-07,1.5652586853320827e-06,1.3414634466171265,-0.0087890625,0.01025390625,0.022984455187563257,0.0007842393405869115,0.0645298792576746,0.0008572035153372641,1.2063285320328336,1.2067289340174143,0.0,0.0,4.023670686479656,4.023578923916451,0.010405534663041725,0.010405993797904441,0.0,9.828197849475219e-05,0.00013807172241963502,0.0
1626091661.7581398,-0.03784312510266675,4.8823538140496726e-05,4.48,2.97,0.2156095802783966,1.5652586853320827e-06,-0.5487805008888245,0.03515625,0.1123046875,-0.10601846760377007,-0.005658520208798371,-0.051564909527637856,-0.0012859055253520435,1.2067214721643693,1.2073403925372836,0.0,0.0,4.02531735991994,4.025225782685608,0.010358446225308592,0.010358642866172827,0.0,9.59779998264049e-05,0.00011578787446521982,0.0
1626091661.80014,-0.038055715058600156,4.192960918358553e-05,4.55,2.98,1.3584445923697785e-07,-1.2636694464163156e-06,2.1341464519500732,0.0087890625,0.01611328125,-0.10576214655763698,-0.002866814686063753,-0.0901144064291267,-0.003804737195687804,1.2059063921839563,1.2064256608408666,0.0,0.0,4.0259315681022665,4.0258401173895555,0.009806834415191045,0.00980699877569039,0.0,9.262871300861051e-05,0.00011414345465387199,0.0
1626091661.8601398,-0.03816706680643922,3.5246818448141726e-05,4.58,3.03,1.3584445923697785e-07,-1.2636694464163156e-06,1.2804877758026123,0.00048828125,0.02587890625,-0.06192747004245366,-0.00017687250538407705,-0.09858584446040834,-0.0014914652929425378,1.206540136567858,1.2059529978449102,0.5,0.0,4.026957270207776,4.026865792028509,0.010294878881106605,0.010295050248666199,0.0,8.920669843979902e-05,0.000109048301305679,0.0
1626091661.92014,-0.038171832885304076,2.8589296232255607e-05,4.55,2.94,0.3009722828865051,-0.016664991155266762,1.2804877758026123,0.09765625,-0.453125,0.06864520690758479,0.004349007073753538,-0.03680246263756203,0.0029118186880225075,1.2055059438942402,1.20629738189053,0.0,0.0,4.028024672572638,4.027933022801409,0.010359436053100687,0.010359581828082852,0.0,6.622430842222145e-05,9.60613725969879e-05,0.0
1626091661.98014,-0.038075688639043176,2.272945720407948e-05,4.54,2.95,0.07856626063585281,-2.3238897028932115e-06,3.9024391174316406,0.20263671875,0.09423828125,0.10030948214186869,0.008650134275686639,0.017869311889447993,0.00736818361132948,1.2068392989600862,1.2071279195854563,0.0,0.0,4.028554051535347,4.028462405450578,0.009827518957384882,0.009827636121489645,0.0,5.4897451634079296e-05,8.056893881760721e-05,0.0
1626091662.051065,-0.03782957069153749,1.2727170885711628e-05,4.52,2.98,0.004770573228597641,-0.24760039150714874,1.3414634466171265,-0.0009765625,0.01611328125,0.042676881278513004,-0.05606296019480897,0.06360146004690945,-0.003052517125939008,1.2051921612144592,1.2085930885552816,0.0,-1.0,4.0301186547625365,4.030027067434701,0.009186496975891925,0.009186620967724182,0.0,4.06444154624386e-05,5.529649028358842e-05,0.0
1626091662.101065,-0.03760663789226021,6.050288268357185e-06,4.5,2.98,0.008069946430623531,-0.8764277696609497,52.256099700927734,0.005859375,0.01708984375,0.02585390231348378,-0.1972138069624785,0.04819418795455625,-0.14483460512967064,1.1323336587766972,1.1809563173930688,0.0,-1.0,4.031167683964033,4.0310760252663735,0.009804392481796596,0.009804505704265321,0.0,6.384311150912366e-05,5.268174890557621e-05,0.0
1626091662.161065,-0.03730450210719463,-1.5929732308975787e-06,4.5,2.97,0.012692156247794628,-0.9428465962409973,55.54878234863281,-0.07763671875,0.08203125,0.01626128820034495,-0.16281082231129212,0.030068396522510345,-0.18929755497277523,0.9261028378896154,1.0385489623373705,0.0,-1.0,4.032700954012692,4.032609235323256,0.010157823822640185,0.010157904916751778,0.0,5.062593712817669e-05,5.6253122159982886e-05,0.0
1626091662.221065,-0.03692999285832659,-1.0465056680511229e-05,4.49,2.96,0.011298882775008678,-0.9860088229179382,54.32926940917969,-0.0986328125,-0.0224609375,0.011420492793272955,-0.16491131349105181,0.02133150286783507,-0.21331320538398002,0.6570932548853577,0.8675741153375782,0.0,-1.0,4.033680392849748,4.033588665587317,0.010117391768009068,0.010117451407118165,0.0,-6.686485565376131e-05,2.421330926282634e-05,0.0
1626091662.281065,-0.036503437616006135,-2.1959134646017156e-05,4.49,2.97,0.00070628133835271,-0.5750373601913452,51.64634323120117,0.00341796875,-0.02099609375,0.008996881835711549,-0.173813189817954,0.013880241150942543,-0.2344322160996937,0.42892842894577127,0.6414879707117997,0.0,-1.0,4.034984008869543,4.034892281451217,0.00982145210414974,0.009821491482405588,0.0,-0.00016303755022628258,-6.189170157860364e-05,0.0
1626091662.343065,-0.03582297072925182,-4.271696266861753e-05,4.54,3.04,0.013055936433374882,-0.9723880290985107,60.54878234863281,-0.0849609375,0.08544921875,0.002823014675084179,-0.3972636616327964,0.004046801676546686,-0.4272540416736078,0.09027292098522054,0.20665192161287707,0.0,-1.0,4.038723768326894,4.038632047313852,0.009169289649006438,0.009169305848923698,0.0,-0.000110726151038054,-8.984337910232184e-05,0.0
1626091662.401065,-0.03539697830868224,-5.818093641020738e-05,4.63,3.04,0.0130621287971735,-0.9729331135749817,56.158538818359375,-0.0341796875,0.00341796875,0.0040098442635133295,-0.3440622749084025,0.0017538965693859772,-0.39341517860074876,-0.12817050383267453,-0.04067274028615366,0.0,-1.0,4.042023140134924,4.041931420460573,0.009809255326147187,0.009809265976454968,0.0,-0.00026100317628709597,-0.00016236189854608235,0.0
1626091662.461065,-0.03490545508630284,-7.458912648458386e-05,4.6,3.03,0.01661495678126812,-0.9420214295387268,56.89024353027344,0.00048828125,0.00390625,0.004846902313721203,-0.29173494861354965,0.0019358451972675257,-0.3613757810132094,-0.3748296919189477,-0.2537654153408046,0.0,0.0,4.044068471883801,4.043976752324026,0.008765562401846958,0.008765569268719887,0.0,-0.00040670149874674305,-0.00026870598960103404,0.0
1626091662.521065,-0.0343540540858998,-9.139687458160114e-05,4.53,3.03,0.002135490532964468,0.016405507922172546,0.7317073345184326,-0.04296875,0.02001953125,0.005087035782547606,-0.25874585496389524,0.002191838172575824,-0.328659322793416,-0.5762645147597951,-0.541046368111037,0.0,0.0,4.047503472197919,4.047411752271968,0.010415209972614638,0.010415214870746712,0.0,-0.00044283937073314047,-0.00041446766479578305,0.0
1626091662.581065,-0.033761551984510675,-0.00010953404436002337,4.5,3.02,8.503156436745485e-07,-7.90991271060193e-06,1.2804877758026123,-0.005859375,0.01025390625,0.002347072384513848,-0.016989414591969496,0.00142904608456832,-0.06222026231410889,-0.5744135860009872,-0.590715377895791,0.0,0.0,4.049813809580983,4.049722089545701,0.010063251842457682,0.010063255373817541,0.0,-0.00031690070136070286,-0.00040724041381256886,0.0
1626091662.655065,-0.03278563879981397,-0.00013793176653987107,4.47,3.06,0.0007508071139454842,0.0659383237361908,6.829268455505371,-0.04248046875,0.04052734375,-0.0010917858842464452,0.15344376989138586,-0.0013407924150039383,0.16438543451172044,-0.38578325631709637,-0.4752083110782095,0.0,0.0,4.05193849412277,4.051846774641957,0.010395522259249503,0.01039552470249927,0.0,-0.0002534613432061732,-0.0003036427344446782,0.0
1626091662.701065,-0.0322371672238514,-0.0001537530584385118,4.47,3.04,3.219108180019248e-07,2.9945192636660067e-06,1.1585365533828735,0.013671875,0.009765625,-0.0008292093816455198,0.1308362030389642,-0.0021623875201348267,0.15930498984374208,-0.37254917794277087,-0.3939275134293328,0.0,0.0,4.0530435195960965,4.052951800729445,0.010189110549908852,0.01018911262180376,0.0,-0.00019019312578259667,-0.0002602182721021397,0.0
1626091662.761065,-0.03162737706905113,-0.00016888856349073084,4.46,3.05,0.01067814789712429,-0.5931315422058105,31.463415145874023,0.03515625,-0.015625,-3.164910951664713e-05,-0.10435800292156805,-0.002099426743845998,-0.030514198278088298,-0.41601165321485234,-0.3874294526826724,0.0,-1.0,4.0538989480784196,4.053807229810245,0.009915036907677744,0.009915038676574355,0.0,-0.0001548923223532286,-0.0002080975372304333,0.0
1626091662.821065,-0.03094588868056638,-0.00018053598822019099,4.47,3.04,0.01196381077170372,-0.8758717775344849,48.04878234863281,-0.03857421875,0.11181640625,0.0023303895013696593,-0.1356838384223817,-0.0010832810697330617,-0.12533738372599898,-0.5802933952514892,-0.43814315915902174,0.0,-1.0,4.054473261896291,4.054381544011679,0.009197638134408253,0.009197639685137227,0.0,-0.0002451222133321275,-0.00019872772883304857,0.0
1626091662.8810651,-0.03018573156526098,-0.00018767450240578194,4.5,3.08,0.00765436002984643,-0.8428141474723816,50.182926177978516,-0.04833984375,-0.0419921875,0.0033476055146879173,-0.021732400899543737,0.0005305674269266212,-0.14360390599448894,-0.7801653326784915,-0.5720247558331127,0.0,1.0,4.055681755881475,4.05559003801859,0.010096037420473571,0.010096038811548854,0.0,-0.00029217939641840336,-0.00024130047843644057,0.0
1626091662.947065,-0.028954036551222494,-0.000194939964753727,4.52,3.1,0.004838303662836552,0.9391459822654724,-47.80487823486328,0.07861328125,-0.0244140625,-0.001254086091619186,0.07779753837939767,0.0002618545516372125,0.054451340535071086,-0.6255623470507428,-0.7108435477015419,0.0,0.0,4.057515001316238,4.057423283355862,0.01018775928726218,0.0101877603856487,0.0,-0.00023967549952680285,-0.00022846954298194594,0.0
1626091663.001065,-0.02820216878871511,-0.00019439413712316918,4.5,3.06,6.032354349372326e-07,5.611491815216141e-06,2.317073106765747,0.01220703125,-0.025390625,-0.0008909744303762409,0.029751799447195207,-0.001032167881891091,0.1105359411877009,-0.5122412977308356,-0.6376337521883688,0.0,0.0,4.0583326237618005,4.0582409058816165,0.009868498866403364,0.009868499778193917,0.0,-0.00016086093213242192,-0.00022296840663210032,0.0
1626091663.061065,-0.02737971587444093,-0.00019167046728109586,4.5,3.04,6.013962661199912e-07,5.594383765128441e-06,1.2804877758026123,0.001953125,0.01025390625,-0.00046879155595957924,0.007804502828661883,-0.0012768984392833359,0.03023463827797079,-0.5083948693592699,-0.5776404034640037,0.0,0.0,4.0592117381214186,4.059120020337895,0.009938638271051963,0.009938639021101118,0.0,-0.00011196563196153726,-0.00017375606047212498,0.0
1626091663.121065,-0.026509660219793597,-0.00018701566642168914,4.48,3.05,0.08819311112165451,-0.016560900956392288,7.682927131652832,0.0498046875,-0.22900390625,0.07460050358318779,-0.001652144398614188,0.013309221927939511,0.010154784438472376,-0.5178232233422821,-0.5509568444877391,0.5,0.0,4.059900329327575,4.05980861164567,0.009199548227741767,0.00919954889359448,0.0,-9.48587293430681e-05,-0.00012442865940199193,0.0
1626091663.181065,-0.02561135312730379,-0.00018082018962097405,4.48,3.02,0.4875067472457886,0.04930386692285538,-0.9146341681480408,0.01220703125,-0.001953125,0.11393107329058726,0.020792609342011138,0.06133099358966511,0.01506519895905958,-0.5175647740145942,-0.539843107978202,0.5,0.0,4.060838968442828,4.060747256998754,0.009704586667746307,0.009704603727719238,0.0,-0.00014543910845370817,-0.00013575675901688434,0.0
1626091663.241065,-0.02424833783331911,-0.0001703947711748468,4.55,2.97,0.500079333782196,-0.016349202021956444,-1.7073171138763428,-0.29345703125,-0.8779296875,0.2254592942012119,0.006466026205271304,0.1781540420693997,0.0095331628998658,-0.5088397019603238,-0.5161535650151131,0.5,0.0,4.062869727304681,4.062778350357867,0.01014664246734423,0.010146861087092693,0.0,0.0001269138968621662,5.9266916966091685e-05,0.0
1626091663.301065,-0.023478708608157282,-0.0001631636806989076,4.51,2.83,0.36857110261917114,1.7123204543167958e-06,3.5975611209869385,0.31103515625,0.0654296875,0.23835249789568885,0.012820846033694369,0.2203781340625393,0.013520985323057044,-0.507016758339178,-0.5095044987950821,0.5,0.0,4.064079767528566,4.0639890050858725,0.00985428967490658,0.009854708921543096,0.0,0.00011298730802333535,0.00011423171600551381,0.0
1626091663.361065,-0.022678371573144045,-0.00015495744704602433,4.48,2.74,0.004307944793254137,-0.03307167440652847,2.865853786468506,0.01416015625,0.103515625,0.18474169777966526,0.0018700307177716851,0.23506371510572133,0.004746182014178788,-0.5076675746573909,-0.5068506813012941,0.5,0.0,4.065543136081045,4.065453409578393,0.00993017393328693,0.009930818195308815,0.0,9.536301833940132e-05,0.00012707664742424743,0.0
1626091663.421065,-0.021864126216057284,-0.0001460511700673655,4.49,2.67,6.350170451696613e-07,-5.907134891458554e-06,1.402438998222351,-0.0029296875,0.01904296875,0.10925614794345505,0.002516523914430577,0.19482242829285537,0.002622918611218437,-0.5078564213812696,-0.5071664570808311,0.5,0.0,4.066795547974654,4.0667067546874085,0.009161208570947744,0.009161960010735323,0.0,9.540338321109798e-05,0.0001253479058514974,0.0
1626091663.481065,-0.021048723059141305,-0.00013667605872316036,4.48,2.62,0.290457159280777,-0.0329708456993103,-0.5487805008888245,-0.09814453125,-0.203125,0.1562591308650614,0.0003357946560991549,0.16657923467601118,0.0011444602839016283,-0.507038001674839,-0.5070930638757524,0.5,0.0,4.068153585375414,4.0680656336001935,0.00974290258955821,0.009743611282709149,0.0,8.731386212276831e-05,0.00012174419580996227,0.0
1626091663.551065,-0.019801984849635742,-0.00012215201930337643,4.48,2.5,6.890690542604716e-07,6.409944489860209e-06,0.4268292784690857,0.00830078125,0.0859375,0.12728284152447933,0.006881344805420429,0.1646784022754765,0.007904414167669772,-0.5069815253230384,-0.5061726477085192,0.0,0.0,4.070515906691354,4.070429211317549,0.01019221814901607,0.010192802203016587,0.0,4.310531644164285e-05,7.854476362763754e-05,0.0
1626091663.601065,-0.019144422700684373,-0.00011397472879913705,4.49,2.47,6.890690542604716e-07,6.409944489860209e-06,1.2195122241973877,-0.00048828125,0.01513671875,0.07405359243701459,0.0019999574246488986,0.13320501226939022,0.004713530415858184,-0.5071892941078642,-0.5056842513532558,0.0,0.0,4.0715473536960785,4.07146117669229,0.009864227741773292,0.00986475974995303,0.0,4.678993032829986e-05,6.604693416724708e-05,0.0
1626091663.661065,-0.01846938146901316,-0.00010538515715119061,4.49,2.48,6.890690542604716e-07,6.409944489860209e-06,1.2804877758026123,-0.0009765625,0.001953125,0.04195523334210256,0.0012490569792935734,0.08200045760329311,0.0014886437246594783,-0.5072535512814367,-0.506157925188206,0.0,0.0,4.07269985374073,4.072614023000201,0.009912566578219095,0.009912975105473077,0.0,4.396682907759206e-05,5.8550670321556434e-05,0.0
1626091663.721065,-0.017789635160800357,-9.659425536257054e-05,4.47,2.45,6.890690542604716e-07,6.409944489860209e-06,1.3414634466171265,-0.005859375,0.01513671875,0.027349373522005862,0.0011548723219487241,0.0593480737403132,0.0012008123453902762,-0.507261267508454,-0.5062977601191577,0.0,0.0,4.0732781160006395,4.073192374860541,0.00996784781469943,0.009968184522553965,0.0,4.0722992277566e-05,5.492570831131036e-05,0.0
1626091663.781065,-0.017114526773977526,-8.77642246692631e-05,4.47,2.47,6.911762397976418e-07,6.42954637442017e-06,1.4634146690368652,-0.00830078125,0.009765625,0.014983923340768682,0.0009484495111636275,0.033541560210931166,0.001022819238545255,-0.5072416731663737,-0.5065221462860854,0.0,0.0,4.073827545268342,4.073741779356962,0.008766842013086414,0.00876705909913889,0.0,3.687012797601304e-05,4.820480386723741e-05,0.0
1626091663.843065,-0.016104396092893894,-7.452924280889749e-05,4.46,2.41,0.008300015702843666,0.7255415320396423,-33.414634704589844,0.01953125,-0.013671875,0.0034798056239326984,0.1643646430993621,0.0002027159745996266,0.13458686253302413,-0.4338309229874383,-0.475091145983982,0.0,1.0,4.075959718720404,4.075873918985774,0.010215048564934926,0.01021512288745578,0.0,-8.150637502399416e-06,2.696778902028139e-05,0.0
1626091663.901065,-0.013712435120598011,-6.735846245753956e-05,4.47,2.39,0.007631642743945122,0.8402388095855713,-52.0121955871582,0.021484375,-0.01220703125,0.00012869246008742716,0.14502419404314795,-0.005031871293227881,0.15854522458599984,-0.23608575515288172,-0.406504647300327,0.0,1.0,4.07683365569807,4.076747839987342,0.010261014153846037,0.010261061498459885,0.0,-0.00014522397321197017,-1.847187981463605e-05,0.0
1626091663.961065,-0.009786744196035261,-6.0053558739877854e-05,4.47,2.37,0.006995652336627245,0.9589622616767883,-59.20731735229492,0.001953125,0.07763671875,-0.0026709363049880835,0.145469897680808,-0.009776326191075872,0.19666078700976117,-0.005839668107994429,-0.1843772178248341,0.0,1.0,4.078192260820274,4.078106436765341,0.009959052546524433,0.009959075114187903,0.0,-0.0003444134642402268,-0.0001869810674625655,0.0
1626091664.021065,-0.004666374616308038,-5.267557060828139e-05,4.48,2.35,0.008787170983850956,0.9422969818115234,-55.30487823486328,-0.0302734375,-0.01806640625,-0.0041352510916444875,0.1602543623085275,-0.011722601470938135,0.2262132936945537,0.22550899852892076,0.020646421959653053,0.0,1.0,4.079336085271155,4.079250262885962,0.009982212911834501,0.00998222656806975,0.0,-0.00045939128674724234,-0.0003137040085977196,0.0
1626091664.081065,0.00145232637748223,-4.692960775810765e-05,4.48,2.33,0.008034463971853256,0.8761533498764038,-36.463417053222656,-0.00732421875,-0.05224609375,-0.004042744261598402,0.3187194784915862,-0.013117875006778034,0.29976730935049894,0.40266017268979704,0.2943992717271337,0.0,1.0,4.080979347689248,4.0808935303020295,0.010372494902770002,0.010372502602238402,0.0,-0.00045377761278899006,-0.0004325157835670124,0.0
1626091664.155065,0.012032124052100275,-4.0874200640025124e-05,4.51,2.32,0.009111640974879265,0.972919225692749,-55.060977935791016,0.03369140625,0.029296875,-0.004740116421414063,0.25287815343649606,-0.012200507059417505,0.3038296145094496,0.8670505197755699,0.7832537930785832,0.0,1.0,4.085334467216951,4.085248656688868,0.01020699864396076,0.010207002491771294,0.0,-0.0004883526521960281,-0.0005247390378375437,0.0
1626091664.201065,0.017465115924036104,-4.062565960271799e-05,4.49,2.35,0.003915928769856691,-0.00026728937518782914,-9.939024925231934,0.05029296875,0.08935546875,-0.005046277310766829,0.23621559059534325,-0.011250533239910923,0.2930849502528692,1.0787549585288772,0.9474118792599554,0.0,0.0,4.0866317255225875,4.086545915144709,0.009658063812410245,0.00965806743154183,0.0,-0.000533212307541974,-0.000534281244111373,0.0
1626091664.261065,0.02269068914461639,-4.027496395560189e-05,4.48,2.38,8.511083251505625e-07,-7.917286893643904e-06,1.7682926654815674,-0.00537109375,0.01171875,-0.0034938666166045825,0.13394916428869394,-0.010151188131505692,0.21909175172985862,1.1119644470990189,1.1100477474077632,0.0,0.0,4.088804159576215,4.088718346096671,0.00997431756724956,0.009974321390553074,0.0,-0.000432462350782908,-0.0005274651217917118,0.0
1626091664.321065,0.028084063846397743,-3.766575612007702e-05,4.48,2.4,8.511083251505625e-07,-7.917286893643904e-06,1.3414634466171265,-0.00390625,0.0126953125,-0.0020315088794211657,0.01768256458346053,-0.008570298690087614,0.06195608479827674,1.1057231209249794,1.1175433863322108,0.0,0.0,4.089644109666434,4.089558294554586,0.009808786786855164,0.009808790623857951,0.0,-0.00033751713883387204,-0.00047274114314956533,0.0
1626091664.3810651,0.03384990948789953,-3.133289397331216e-05,4.47,2.39,8.511083251505625e-07,-7.917286893643904e-06,1.4634146690368652,0.00048828125,0.0205078125,-0.0011143721371683977,0.003871267596579578,-0.006297351598065148,0.011676504330250423,1.1050316437909085,1.1143079454477371,0.0,0.0,4.090294848058823,4.09020903187011,0.00890198181626988,0.008901985512112754,0.0,-0.00025704555811919763,-0.0003820708239502837,0.0
1626091664.447065,0.04277393824707854,-1.817278264771021e-05,4.48,2.4,0.005950405728071928,-0.3460228741168976,1.2195122241973877,-0.00537109375,0.0146484375,-0.00032275065280130684,-0.03611718957831321,-0.0036274463040624036,-0.015613189608040158,1.1040117708019295,1.1087363827366854,0.0,-1.0,4.09232412163879,4.092238302129775,0.010317902370625251,0.010317905820640365,0.0,-0.00012463721101691253,-0.00019555543980026048,0.0
1626091664.501065,0.04804698806053158,-6.819677582784892e-06,4.49,2.4,0.005330711603164673,0.04958801344037056,7.560975551605225,-0.06201171875,0.0205078125,0.0009134643699326361,-0.08593994768751353,-0.002380377783853811,-0.08571330153627785,1.0259168984266946,1.0800252500092606,0.0,0.0,4.093105471168628,4.093019651466983,0.009989492136104406,0.009989495195605609,0.0,-0.000115645881339362,-0.00013864439966279865,0.0
1626091664.560793,0.05332050529456637,6.044898401385555e-06,4.5,2.38,2.6420903509460913e-07,-2.4577584554208443e-06,1.4634146690368652,0.00048828125,0.01611328125,0.0011758850392041245,-0.011515935734218946,-0.0011496688850827679,-0.033701043339561816,1.0079444363371535,1.0466973868920015,0.0,0.0,4.093971024258341,4.093885204369867,0.010192421804426302,0.01019242453163824,0.0,-8.856994561548659e-05,-0.00010634158389906803,0.0
1626091664.6207929,0.05803254660440502,1.8638294245681457e-05,4.48,2.37,0.012456321157515049,0.11587274074554443,-2.5609755516052246,0.001953125,-0.072265625,0.02402697917409909,-0.0028585337414350257,0.0004123996285227993,-0.011074841711157902,1.0080969062849614,1.0337835035977732,0.5,0.0,4.094542946549949,4.094457126755113,0.00947906951648587,0.009479071919737863,0.0,-5.494814841865887e-05,-7.710021954307026e-05,0.0
1626091664.680793,0.06164258773491207,2.9341984341140094e-05,4.49,2.37,0.46687090396881104,-0.03297237679362297,1.6463414430618286,-0.490234375,-0.35888671875,0.0981672873223808,-0.00035374667080619797,0.04885472247295081,0.002679348362369602,1.017192839119329,1.027491760861058,0.5,0.0,4.095581600079972,4.095495779360685,0.009787247038102838,0.009787258674325191,0.0,3.7699989004762864e-05,-6.039075398241957e-06,0.0
1626091664.740793,0.06567760775620288,4.3796158924669125e-05,4.42,2.34,0.5081691145896912,-0.04957566410303116,2.682926893234253,0.6435546875,0.10546875,0.29781641239857204,-0.0035334461304897162,0.17144981005118579,-0.005149053570741901,1.0100451227500116,1.018710972203261,0.5,0.0,4.097240827406024,4.097154856130924,0.009955413355427595,0.00995556395337308,0.0,-0.00019233512225146096,-0.00011974232744563729,0.0
1626091664.800793,0.06557212080085485,4.959876870733641e-05,4.32,2.36,0.5033714175224304,-1.546516728012648e-06,-0.5487805008888245,0.248046875,-0.01171875,0.37954492513024757,0.019574203270888928,0.278790173578718,0.011088642465731196,1.0104888982124574,1.014020156186653,0.5,0.0,4.0985426514652605,4.098456170561448,0.00964389909202692,0.009644367724720939,0.0,-0.00017513965254847738,-0.00016053332757851523,0.0
1626091664.8607929,0.06373839260869622,5.443913989635889e-05,4.21,2.32,0.5096168518066406,-0.00055123824859038,-1.097561001777649,-0.5634765625,0.0166015625,0.4288075330838344,0.006570128243972173,0.3682026812492534,0.01120806884046607,1.0106726193845663,1.013320554186394,0.5,0.0,4.100483587878005,4.100395770784596,0.009565437570187336,0.009566497053907486,0.0,-0.00012917197380751154,-0.00015738046935259898,0.0
1626091664.920793,0.060310789442432504,5.851863158939512e-05,4.09,2.37,0.49929240345954895,0.04985548183321953,1.4634146690368652,0.36328125,-0.380859375,0.4579475973566373,0.014353295687014314,0.4360328166155197,0.01157331286843652,1.0097071887396134,1.011436255197001,0.5,0.0,4.103360135235904,4.103269616134507,0.00987027984156772,0.009872168550287122,0.0,-0.0001262226765442717,-0.00014288855965855057,0.0
1626091664.980793,0.05562154642804776,6.180429822287957e-05,3.9,2.41,0.5078830718994141,-0.016076266765594482,3.47560977935791,-0.62109375,-0.1650390625,0.4757394735429606,-0.0016889148907979611,0.47527997035773095,0.008442045787742132,1.0107812093822128,1.0116541359559306,0.5,0.0,4.106278354798926,4.106184862114607,0.008909956659579166,0.008912633824456402,0.0,-8.547026064367076e-05,-0.00011899098001244294,0.0
1626091665.050793,0.047548151132140004,6.621163872391923e-05,3.56,2.44,0.5035306215286255,0.01635795272886753,0.8536585569381714,-0.24169921875,-0.1572265625,0.49297913589462866,0.002781511421297701,0.5217087543984025,0.00628921393263361,1.010965501402219,1.0111540899030182,0.5,0.0,4.1148806704558645,4.114777561605441,0.010171070011370529,0.010175200584144546,0.0,-2.759502039599614e-05,-6.522834331601282e-05,0.0
1626091665.100793,0.04226954910995247,6.884462726298516e-05,3.43,2.44,0.5032142996788025,0.049575407058000565,-2.1341464519500732,-0.025390625,0.06982421875,0.49678549404356254,0.013366074823548735,0.5276917894038026,0.00822196031526658,1.0101220194400369,1.0103478651890132,0.5,0.0,4.118906219400708,4.118798662872604,0.009998736563119505,0.010003228436191593,0.0,-4.759684787106605e-05,-3.928427677667538e-05,0.0
1626091665.160793,0.03644242628095989,7.172227680966592e-05,3.28,2.44,0.5093768835067749,-0.016677768900990486,1.1585365533828735,-0.13623046875,-0.60400390625,0.49833681243067274,0.00027222441100225626,0.5288152222601801,0.012298816126923927,1.0110215892756576,1.0116837436297708,0.5,0.0,4.12300288386503,4.122890677266636,0.009650544664691873,0.009655282175042945,0.0,-3.568098752016414e-05,-3.428574452332394e-05,0.0
1626091665.220793,0.030312480029036654,7.227541078504545e-05,3.2,2.46,0.5015435218811035,-0.016400590538978577,-1.0365853309631348,-0.228515625,-0.13623046875,0.4996851891360928,0.01493434795022775,0.5290898598399429,0.007732453697094905,1.0098504787816562,1.010323947682786,0.5,0.0,4.127470590757522,4.127353050450492,0.00988832252673992,0.009893297174855672,0.0,-3.450746039039464e-05,-2.7233152690826327e-05,0.0
1626091665.280793,0.02412679009520011,7.080694857910154e-05,3.07,2.49,0.5033358335494995,0.0002717396419029683,1.0365853309631348,-0.162109375,-0.4892578125,0.5002364836415613,0.0021835662354825285,0.5286668386118061,0.007482912205276301,1.0107807859440208,1.011135277595973,0.5,0.0,4.132419718714553,4.13229629779245,0.010506468950056072,0.010511887356721074,0.0,-4.93834706475979e-06,-1.4655530458246625e-05,0.0
1626091665.342793,0.014880575824101197,6.310234760762203e-05,2.85,2.48,0.5035284757614136,0.016338016837835312,4.207317352294922,-0.328125,0.33251953125,0.5007837615381775,0.0015881783159999688,0.5222288235515236,0.006014047224475893,1.0101106845783385,1.0106270484127495,0.5,0.0,4.14052010560181,4.140387489362078,0.009974477000784123,0.00997978524195903,0.0,1.328589997944073e-05,7.169769869309512e-06,0.0
1626091665.400793,0.009992996005855268,4.9826457462637805e-05,2.75,2.48,0.4975123107433319,0.0326937735080719,-2.1341464519500732,-0.04345703125,-0.28955078125,0.5007455029831416,0.014627610162303526,0.5192770719961941,0.010712334988013078,1.0093008072966205,1.0100752312370083,0.5,0.0,4.145572417725412,4.145434124758078,0.010220910581578205,0.01022631545422093,0.0,6.391705894502805e-06,1.6329025555007216e-05,0.0
1626091665.460793,0.005164428149581999,2.9648504892386547e-05,2.6,2.52,0.5018007755279541,0.00026702909963205457,1.1585365533828735,-0.529296875,0.00830078125,0.500660076317991,0.0007890353352364595,0.5164286391676222,0.0098336917527835,1.0106666712508878,1.010982691378567,0.5,0.0,4.148514708845584,4.148373156740026,0.009649016989640088,0.00965430183374495,0.0,2.1747800652951104e-05,1.7753766701544383e-05,0.0
1626091665.520793,0.0005299963163651018,4.257909460413213e-06,2.38,2.51,0.5039657950401306,-0.016356337815523148,3.47560977935791,-0.2138671875,0.376953125,0.5009956702935844,0.010105474311934133,0.5144755137364414,0.007573779913236829,1.0094213423662124,1.010692246005876,0.5,0.0,4.152802889074522,4.152656264626832,0.009887908364651095,0.00989323801865179,0.0,1.1082240434172304e-05,2.7723620265524166e-05,0.0
1626091665.580793,-0.0038138381967849824,-2.4276364280797285e-05,2.33,2.53,0.5017358064651489,0.0002651604008860886,-0.24390244483947754,-0.66845703125,0.1796875,0.45754494534875007,-0.0027780058761001057,0.5058683292503297,0.003915992202173464,1.0106129948156044,1.0110808493887642,0.5,0.0,4.15796001026062,4.157807416999338,0.01025386076626205,0.010259305248935324,0.0,2.6339094649473548e-05,2.9174457726479568e-05,0.0
1626091665.654793,-0.010130040549469243,-6.920658514326219e-05,2.01,2.49,0.14113450050354004,0.0002727798419073224,0.6097561120986938,-0.10546875,0.12890625,0.317724044683763,0.020218528160945284,0.4083108837038743,0.013432362040875126,1.01080254912285,1.0105669257164174,0.0,0.0,4.16351903477736,4.163360348602871,0.010138920906118634,0.010143829761628436,0.0,-9.679297799825844e-06,1.427800345034814e-05,0.0
1626091665.700793,-0.013071662254587878,-9.299584659466353e-05,1.87,2.46,9.84835082817881e-07,-9.161256457446143e-06,0.6097561120986938,-0.025390625,0.01904296875,0.20851056929250344,-0.001368866195075185,0.32686551131314495,-0.0018591901786071355,1.0098078521075904,1.0102493637771495,0.0,0.0,4.165905737596358,4.1657446738225605,0.009694157426942861,0.009698255397636744,0.0,-2.2856942290084454e-05,-4.740811638179556e-06,0.0
1626091665.760793,-0.015833231067207538,-0.00011812899232019893,1.8,2.44,9.84835082817881e-07,-9.161256457446143e-06,1.3414634466171265,-0.00244140625,0.013671875,0.11961974420107262,-0.0003639154515681926,0.20104961124254048,-0.000624094544096246,1.0095657846450241,1.0095866010526464,0.0,0.0,4.168046082509873,4.16788320350064,0.009649740832855382,0.009652760925437735,0.0,-1.541838980623739e-05,-1.2426198900588607e-05,0.0
1626091665.820793,-0.018357415848212915,-0.0001412755524216757,1.78,2.4,9.818418220675085e-07,-9.133411367656663e-06,1.402438998222351,0.00244140625,0.01171875,0.06646800036492882,0.0006582938269157782,0.1209030271915376,0.00024235254387309135,1.0096151697216411,1.0095949000418538,0.0,0.0,4.16928315989861,4.169119620444494,0.010506145346973203,0.010508449256833606,0.0,-8.681777472364148e-06,-1.1127042398230348e-05,0.0
1626091665.8807929,-0.020590961132984163,-0.00015891786790444453,1.82,2.4,9.818418220675085e-07,-9.133411367656663e-06,1.3414634466171265,-0.00048828125,0.0166015625,0.03826329791290915,0.0009542732273925921,0.056561318229896414,0.000775877860683927,1.0096200946788483,1.0097166472115497,0.0,0.0,4.170123111809405,4.169959450034785,0.010256797917823116,0.010258291076458594,0.0,-3.42355223718693e-06,-7.252315502787465e-06,0.0
1626091665.946793,-0.023682705221462798,-0.00018035756139038448,1.78,2.41,9.818418220675085e-07,-9.133411367656663e-06,1.3414634466171265,-0.001953125,0.001953125,0.010607036458040682,0.0009882566647992192,-0.008968501206500116,0.0008913215921515416,1.009623859877803,1.0099363550465295,0.0,0.0,4.171656002609547,4.171492409879813,0.010144311488450719,0.010144872965566184,0.0,4.1314467635927675e-06,1.4794474983934423e-06,0.0
1626091666.000793,-0.02497571100112506,-0.000184118279724898,1.77,2.42,9.818418220675085e-07,-9.133411367656663e-06,1.2804877758026123,-0.00732421875,0.01171875,0.005995521590911711,0.0008909781171331467,-0.023063902278447544,0.000821785864068327,1.0096190758593828,1.0100211417093021,0.0,0.0,4.172582218591266,4.172418674846471,0.009999489496363966,0.009999781903591156,0.0,5.964999624620463e-06,5.341425719412328e-06,0.0
1626091666.060793,-0.02607053101899456,-0.00018486882115683137,1.85,2.39,9.84835082817881e-07,-9.161256457446143e-06,1.402438998222351,-0.00927734375,0.01171875,0.003389067377272533,0.0009907997830037483,-0.02765788540420048,0.000947424045127377,1.0096251886794907,1.0101000492231913,0.0,0.0,4.173268944532026,4.173105418932665,0.01015230515052344,0.01015249547277888,0.0,7.184319554898367e-06,7.279963040081772e-06,0.0
1626091666.1207929,-0.02695901921398088,-0.00018177714304631632,1.87,2.37,9.84835082817881e-07,-9.161256457446143e-06,1.2804877758026123,-0.0107421875,0.015625,0.0018806822707744832,0.0006846870138491124,-0.0251079232828531,0.0007727700156103248,1.0096255788869377,1.0101112800847811,0.0,0.0,4.1738694441456605,4.173705922083748,0.008914201296071254,0.00891430997303543,0.0,8.10624042584404e-06,8.553169447331045e-06,0.0
1626091666.180793,-0.027647640082116353,-0.0001760207969383157,1.83,2.38,9.84835082817881e-07,-9.161256457446143e-06,1.3414634466171265,-0.005859375,0.00048828125,0.0010825145678220079,0.0008875741520553851,-0.024229345168897357,0.0007781535361294117,1.0096182123753037,1.0101315871059036,0.0,0.0,4.1748410430330924,4.174677516903211,0.00891939590241029,0.008919460825844768,0.0,8.265765764229036e-06,9.619677578437953e-06,0.0
