time,la_x,la_y,uwb_x,uwb_y,vel_linear_x,vel_angular_z,mpu_ang_vel_z,mpu_linear_acc_x,mpu_linear_acc_y,odom_linear_x,odom_angular_z,odom_filtered_linear_x,odom_filtered_angular_z,odom_yaw,odom_filtered_yaw,cmd_linear_x,cmd_angular_z,var_x,var_y,var_xvel,var_yvel,vel_linear_y,odom_linear_y,odom_filtered_linear_y,cmd_linear_y
1625837299.95765,0,0,0,0,0,0,1.28048777580261,-0.001953125,0.00537109375,0,0.00158931387972,0,0.001477557164526,7.73566200570623E-05,0.001535823351482,,,8.00002173814987,8.00002173814987,0.010362496824703,0.010362496824703,0,0,0,
1625837299.95965,0,0,5.76,4.89,0,0,1.28048777580261,-0.00244140625,0.01025390625,0,0.001794244873169,0,0.001549678701363,8.73253970323188E-05,0.001468608472474,,,7.99990202181059,7.99990202181059,0.008960627423985,0.008960627423985,0,0,0,
1625837300.01765,0,0,5.76,4.89,0,0,1.28048777580261,-0.00244140625,0.01025390625,0,0.001685095175287,0,0.001545484927144,8.10197754623831E-05,0.001478294046798,,,8.00010327882291,8.00010327882291,0.00938526500481,0.00938526500481,0,0,0,
1625837300.07765,0,0,5.76,4.89,0,0,1.28048777580261,-0.00244140625,0.01025390625,0,0.001963237679437,0,0.001668035262367,9.05287686124066E-05,0.001498260161809,,,8.00031873863671,8.00031873863671,0.009764514839416,0.009764514839416,0,0,0,
1625837300.14765,0,0,5.76,4.89,0,0,1.28048777580261,-0.01708984375,0.0009765625,0,0.001705601790913,0,0.001640449053649,0.000101689936501,0.001542595401969,,,8.00060033608591,8.00060033608591,0.010337113741082,0.010337113741082,0,0,0,
1625837300.19765,0,0,5.76,4.89,0,0,1.28048777580261,-0.01708984375,0.0009765625,0,0.001615936286116,0,0.00157365914801,7.98883102622856E-05,0.001533249500624,,,8.00075968095891,8.00075968095891,0.010213342949569,0.010213342949569,0,0,0,
1625837300.25765,0,0,5.76,4.89,0,0,1.21951222419739,-0.00390625,0.001953125,0,0.001513521157932,0,0.001485649171114,7.47309691935105E-05,0.001533647542362,,,8.00098183471523,8.00098183471523,0.010387195667124,0.010387195667124,0,0,0,
1625837300.35565,0,0,5.76,4.9,0,0,1.21951222419739,0.0029296875,0.00830078125,0,0.001736485872961,0,0.001601415170738,0.000147538512509,0.001565456350417,,,8.0012981542348,8.0012981542348,0.0104921039804,0.0104921039804,0,0,0,
1625837300.37765,0,0,5.76,4.9,0,0,1.21951222419739,0.0029296875,0.00830078125,0,0.001693899936928,0,0.001590213831491,8.0849252173188E-05,0.001514795246191,,,8.00128954010217,8.00128954010217,0.009583685489654,0.009583685489654,0,0,0,
1625837300.43765,0,0,5.76,4.9,0,0,1.21951222419739,-0.0048828125,0.00732421875,0,0.001586887981244,0,0.00153419142873,7.70795856152852E-05,0.001521040666635,,,8.00150687946229,8.00150687946229,0.009914076014042,0.009914076014042,0,0,0,
1625837300.49765,0,0,5.76,4.9,0,0,1.21951222419739,-0.0048828125,0.00732421875,0,0.001746914953681,0,0.001559113180743,8.33866569453907E-05,0.001528736088331,,,8.00172661033163,8.00172661033164,0.010162994533694,0.010162994533694,0,0,0,
1625837300.55765,0,0,5.76,4.89,0,0,1.34146344661713,-0.01123046875,-0.00830078125,0,0.001636012926264,0,0.001513881613913,7.94729631519252E-05,0.001531559386422,,,8.00194829403725,8.00194829403726,0.010348988008006,0.010348988008006,0,0,0,
1625837300.56365,0,0,5.76,4.89,0,0,1.34146344661713,-0.01123046875,-0.00830078125,0,0.001900249827095,0,0.001615667518639,9.91463790892204E-05,0.001478207933389,,,8.00185066317621,8.00185066317622,0.00906275088454,0.00906275088454,0,0,0,
1625837300.64765,0,0,5.75,4.89,0,0,1.21951222419739,-0.001953125,-0.00244140625,0,0.001495759377627,0,0.001526609894191,0.000125025025297,0.001555652999169,,,8.00221303845868,8.00221303845868,0.010209017779239,0.010209017779239,0,0,0,
1625837300.67765,0,0,5.75,4.89,0,0,1.21951222419739,-0.001953125,-0.00244140625,0,0.001447094184082,0,0.001452085124336,7.37086101827809E-05,0.001511096483032,,,8.00225313976726,8.00225313976726,0.009586194057094,0.009586194057094,0,0,0,
1625837300.75165,0,0,5.75,4.9,0,0,1.21951222419739,-0.00732421875,0.01123046875,0,0.001545257929698,0,0.001455271942,9.52572095881071E-05,0.001550717528444,,,8.00255912615468,8.00255912615468,0.010314484342019,0.010314484342019,0,0,0,
1625837300.79765,0,0,5.75,4.9,0,0,1.21951222419739,-0.00732421875,0.01123046875,0,0.001470016162185,0,0.001406581306598,7.12938364512181E-05,0.001526459977065,,,8.0026937123295,8.0026937123295,0.01008913846929,0.01008913846929,0,0,0,
1625837300.85765,0,0,5.74,4.89,0,0,1.21951222419739,-0.00732421875,0.001953125,0,0.001376664120203,0,0.001331105977887,6.73692430306183E-05,0.001517694363138,,,8.00291524228411,8.00291524228411,0.010293641443092,0.010293641443092,0,0,0,
1625837300.91765,0,0,5.75,4.88,0,0,1.28048777580261,-0.01220703125,-0.0048828125,0,0.001588603003346,0,0.001429727018491,7.55130435582124E-05,0.001452205564414,,,8.00299687050473,8.00299687050473,0.009355865188714,0.009355865188714,0,0,0,
1625837300.97765,0,0,5.75,4.88,0,0,1.28048777580261,-0.01220703125,-0.0048828125,0,0.001634985377805,0,0.00146349566498,7.77655179826287E-05,0.001460724167456,,,8.00321223132981,8.00321223132981,0.009742128801522,0.009742128801522,0,0,0,
1625837301.03765,0,0,5.76,4.88,0,0,1.21951222419739,-0.00390625,0,0,0.001531717325572,0,0.001425535120391,7.42796373235105E-05,0.001465141060878,,,8.00343039450286,8.00343039450287,0.010035344412013,0.010035344412013,0,0,0,
1625837301.09765,0,0,5.76,4.88,0,0,1.21951222419739,-0.00390625,0,0,0.001658588504019,0,0.001457927706281,7.92866466936232E-05,0.001471067519138,,,8.00365078539038,8.00365078539038,0.010254818552477,0.010254818552477,0,0,0,
1625837301.15765,0,0,5.75,4.89,0,0,1.21951222419739,-0.0029296875,0.005859375,0,0.001553352054009,0,0.001418761751277,7.55074238091516E-05,0.001471714950112,,,8.00387299288454,8.00387299288454,0.010417939008745,0.010417939008745,0,0,0,
1625837301.25165,0,0,5.76,4.89,0,0,1.15853655338287,-0.0087890625,0.0068359375,0,0.001828906768471,0,0.001606672709125,0.000143418802334,0.001498196859973,,,8.00416307904438,8.00416307904439,0.010394446276759,0.010394446276759,0,0,0,
1625837301.27765,0,0,5.76,4.89,0,0,1.15853655338287,-0.0087890625,0.0068359375,0,0.001776977936752,0,0.001624125498602,8.29696278699033E-05,0.001459224668065,,,8.00417863991173,8.00417863991174,0.00961751477607,0.00961751477607,0,0,0,
1625837301.35565,0,0,5.75,4.91,0,0,1.34146344661713,-0.00244140625,0,0,0.002075220332374,0,0.001795130555825,0.000129229911111,0.001534912353566,,,8.00451080205825,8.00451080205825,0.010452704327864,0.010452704327864,0,0,0,
1625837301.39823,0,0,5.75,4.91,0,0,1.34146344661713,-0.00244140625,0,0,0.001981289923402,0,0.00180952251815,9.31983170294438E-05,0.001525552384876,,,8.0046241406212,8.0046241406212,0.010100673192823,0.010100673192823,0,0,0,
1625837301.45823,0,0,5.76,4.89,0,0,1.34146344661713,-0.01318359375,0.01025390625,0,0.001855519492187,0,0.00175951260989,8.9481123060153E-05,0.001542193351392,,,8.00484574347434,8.00484574347434,0.010301950358605,0.010301950358605,0,0,0,
1625837301.46023,0,0,5.76,4.89,0,0,1.34146344661713,-0.01318359375,0.01025390625,0,0.001717741262279,0,0.001707400014698,8.88052451769737E-05,0.001466316443157,,,8.00472607389095,8.00472607389095,0.008915887927058,0.008915887927058,0,0,0,
1625837301.51823,0,0,5.76,4.89,0,0,1.21951222419739,-0.00830078125,0.01611328125,0,0.001613086793593,0,0.001627513326675,7.98298855231341E-05,0.001479841456651,,,8.00492733285286,8.00492733285287,0.009350441458828,0.009350441458828,0,0,0,
1625837301.57823,0,0,5.76,4.89,0,0,1.21951222419739,-0.00830078125,0.01611328125,0,0.001718137901341,0,0.001612400032143,8.21474563138798E-05,0.001494803443532,,,8.00514278713674,8.00514278713674,0.009737787176676,0.009737787176676,0,0,0,
1625837301.63823,0,0,5.77,4.88,0,0,1.28048777580261,-0.0078125,0.00341796875,0,0.001609673410837,0,0.001547976062203,7.82455598346843E-05,0.00150387078679,,,8.00536102404404,8.00536102404404,0.010031926851415,0.010031926851415,0,0,0,
1625837301.69823,0,0,5.77,4.88,0,0,1.28048777580261,-0.0078125,0.00341796875,0,0.00154211419145,0,0.001547976062203,7.55631229645007E-05,0.00150387078679,,,8.00536102404404,8.00536102404404,0.010031926851415,0.010031926851415,0,0,0,
1625837301.75823,0,0,5.77,4.87,0,0,1.21951222419739,-0.0068359375,0.00439453125,0,0.001444396860182,0,0.001393097431522,7.1021642216081E-05,0.001502754104623,,,8.0058037998016,8.0058037998016,0.01041658486362,0.01041658486362,0,0,0,
1625837301.81823,0,0,5.8,4.88,0,0,1.28048777580261,-0.00732421875,0.00146484375,0,0.001685063711171,0,0.001511179550612,8.00459765120689E-05,0.00144589229529,,,8.00588383351911,8.00588383351911,0.009427060821219,0.009427060821219,0,0,0,
1625837301.87823,0,0,5.8,4.88,0,0,1.28048777580261,-0.00732421875,0.00146484375,0,0.001808413916775,0,0.001581742854937,8.5239453111372E-05,0.001461911385847,,,8.00609982037266,8.00609982037266,0.009796838488483,0.009796838488483,0,0,0,
1625837301.93823,0,0,5.79,4.89,0,0,1.34146344661713,-0.0029296875,0.0078125,0,0.001694199855393,0,0.001558369227895,8.18204348524748E-05,0.001473884139763,,,8.00631849224329,8.0063184922433,0.010076861200312,0.010076861200312,0,0,0,
1625837301.99823,0,0,5.79,4.89,0,0,1.34146344661713,-0.0029296875,0.0078125,0,0.00181399881971,0,0.001598015030953,8.68503337826398E-05,0.001487323773246,,,8.00653929610093,8.00653929610093,0.010286056153994,0.010286056153994,0,0,0,
1625837302.06423,0,0,5.8,4.9,0,0,1.28048777580261,-0.009765625,0.00146484375,0,0.001947845604658,0,0.001619275074539,0.000102150233175,0.001414497810587,,,8.00641148575992,8.00641148575992,0.008848399660926,0.008848399660926,0,0,0,
1625837302.11823,0,0,5.8,4.89,0,0,1.15853655338287,-0.00732421875,0,0,0.001837129065691,0,0.001717470911508,8.81438185874696E-05,0.001459035251594,,,8.00665760019086,8.00665760019086,0.009521696013503,0.009521696013503,0,0,0,
1625837302.17823,0,0,5.8,4.89,0,0,1.15853655338287,-0.00732421875,0,0,0.001571621248508,0,0.001706862223565,7.89338606467517E-05,0.001471748387491,,,8.00683845158765,8.00683845158765,0.009709464103674,0.009709464103674,0,0,0,
1625837302.25223,0,0,5.79,4.9,0,0,1.28048777580261,-0.009765625,0.0029296875,0,0.00160442367876,0,0.001551778940176,9.99004615901356E-05,0.001532965436103,,,8.00736701045847,8.00736701045848,0.010637375971986,0.010637375971986,0,0,0,
1625837302.29823,0,0,5.79,4.9,0,0,1.28048777580261,-0.009765625,0.0029296875,0,0.001526275591434,0,0.001551778940176,7.44590216919126E-05,0.001532965436103,,,8.00736701045847,8.00736701045848,0.010637375971986,0.010637375971986,0,0,0,
1625837302.35823,0,0,5.78,4.89,0,0,1.28048777580261,-0.00634765625,0.00830078125,0,0.001429336248846,0,0.00148289574871,7.0138330020831E-05,0.001512515686215,,,8.007501080941,8.00750108094101,0.01032774809588,0.01032774809588,0,0,0,
1625837302.41823,0,0,5.79,4.88,0,0,1.21951222419739,-0.009765625,0.00146484375,0,0.001651871344274,0,0.001483262083012,7.85871890194785E-05,0.001435699525222,,,8.00758830887896,8.00758830887896,0.008984839641973,0.008984839641973,0,0,0,
1625837302.47823,0,0,5.79,4.88,0,0,1.15853655338287,-0.001953125,0.00927734375,0,0.001689730694629,0,0.001492667774463,8.05301643597555E-05,0.001446396941183,,,8.00780198780886,8.00780198780887,0.009456626706721,0.009456626706721,0,0,0,
1625837302.54423,0,0,5.79,4.88,0,0,1.15853655338287,-0.001953125,0.00927734375,0,0.001595107386443,0,0.00152242546533,8.70450998450457E-05,0.001458097376841,,,8.00801868678124,8.00801868678125,0.00981831321138,0.00981831321138,0,0,0,
1625837302.59823,0,0,5.79,4.88,0,0,1.15853655338287,-0.001953125,0.00927734375,0,0.001504900977575,0,0.001510705928249,7.368843688225E-05,0.001484476432484,,,8.00827611662049,8.0082761166205,0.010262911037001,0.010262911037001,0,0,0,
1625837302.65823,0,0,5.8,4.86,0,0,1.21951222419739,-0.0048828125,0.00537109375,0,0.001409476162271,0,0.001452316180568,6.92831358608616E-05,0.00147833796129,,,8.00846045521838,8.00846045521838,0.010264454300284,0.010264454300284,0,0,0,
1625837302.75223,0,0,5.79,4.87,0,0,1.28048777580261,-0.00048828125,0.01123046875,0,0.001765595000043,0,0.001567377746063,0.00014044188291,0.001500570178062,,,8.00897339434832,8.00897339434832,0.010398442206712,0.010398442206712,0,0,0,
1625837302.77823,0,0,5.79,4.87,0,0,1.28048777580261,-0.00048828125,0.01123046875,0,0.001715245066957,0,0.001567377746063,8.09589433462609E-05,0.001500570178062,,,8.00897339434832,8.00897339434832,0.010398442206712,0.010398442206712,0,0,0,
1625837302.85623,0,0,5.78,4.88,0,0,1.28048777580261,-0.0078125,0.00146484375,0,0.001941446831715,0,0.001576123012318,0.000122485249342,0.001460337444899,,,8.00898835219298,8.00898835219298,0.009620736097963,0.009620736097963,0,0,0,
1625837302.89823,0,0,5.78,4.88,0,0,1.28048777580261,-0.0078125,0.00146484375,0,0.001854627336588,0,0.001706755803812,8.76951608235217E-05,0.001529971141617,,,8.00932143653494,8.00932143653494,0.010455007816932,0.010455007816932,0,0,0,
1625837302.95823,0,0,5.8,4.88,0,0,1.28048777580261,-0.00146484375,0.0048828125,0,0.001736821256888,0,0.001651315723564,8.40058297701498E-05,0.001526530314646,,,8.00965284636351,8.00965284636351,0.010291527420952,0.010291527420952,0,0,0,
1625837302.96023,0,0,5.8,4.88,0,0,1.21951222419739,0.00048828125,0.001953125,0,0.001837614920869,0,0.001651315723564,9.08918433859135E-05,0.001526530314646,,,8.00965284636351,8.00965284636351,0.010291527420952,0.010291527420952,0,0,0,
1625837303.04423,0,0,5.79,4.89,0,0,1.21951222419739,0.00048828125,0.001953125,0,0.001622324478545,0,0.001678785130361,0.000124377122893,0.001456669228551,,,8.00953288720602,8.00953288720602,0.008908425499677,0.008908425499677,0,0,0,
1625837303.07823,0,0,5.79,4.89,0,0,1.21951222419739,0.00048828125,0.001953125,0,0.001563119636071,0,0.001621783899998,7.76912711411151E-05,0.00153989998364,,,8.00989202237987,8.00989202237987,0.010081237290051,0.010081237290051,0,0,0,
1625837303.14823,0,0,5.78,4.9,0,0,1.21951222419739,-0.0009765625,-0.00244140625,0,0.001563085090962,0,0.001555486068779,9.13338594014343E-05,0.001506584384066,,,8.00995621407053,8.00995621407054,0.009597407511708,0.009597407511708,0,0,0,
1625837303.19823,0,0,5.78,4.9,0,0,1.21951222419739,-0.0009765625,-0.00244140625,0,0.001480664867275,0,0.001517358938591,7.23897363645349E-05,0.001541501856053,,,8.0102367106394,8.0102367106394,0.010208954123744,0.010208954123744,0,0,0,
1625837303.25823,0,0,5.8,4.89,0,0,1.28048777580261,-0.001953125,0.0029296875,0,0.001386535139653,0,0.001448735628154,6.8107520008456E-05,0.001525979305,,,8.0103959841069,8.01039598410691,0.010117506332891,0.010117506332891,0,0,0,
1625837303.31823,0,0,5.8,4.89,0,0,1.34146344661713,-0.00537109375,0.00146484375,0,0.001629046241235,0,0.001452799964064,7.73521319322577E-05,0.001448170864444,,,8.0104869349887,8.0104869349887,0.008870168493851,0.008870168493851,0,0,0,
1625837303.37823,0,0,5.8,4.89,0,0,1.34146344661713,-0.00537109375,0.00146484375,0,0.00171081774739,0,0.001464895080746,8.11020106414977E-05,0.00145766744928,,,8.01069912524806,8.01069912524807,0.009368778136328,0.009368778136328,0,0,0,
1625837303.43823,0,0,5.79,4.88,0,0,1.21951222419739,-0.00927734375,0.00048828125,0,0.001602686116593,0,0.00151393806579,7.76036052814241E-05,0.001469500842399,,,8.01091462066641,8.01091462066641,0.009752173781916,0.009752173781916,0,0,0,
1625837303.49823,0,0,5.79,4.88,0,0,1.21951222419739,-0.001953125,0.0068359375,0,0.001629084746469,0,0.001476141637755,7.89045402749791E-05,0.001483131073717,,,8.0113533673722,8.0113533673722,0.010260724906946,0.010260724906946,0,0,0,
1625837303.55823,0,0,5.79,4.87,0,0,1.21951222419739,-0.001953125,0.0068359375,0,0.001753296463492,0,0.001476141637755,8.2838678585574E-05,0.001483131073717,,,8.0113533673722,8.0113533673722,0.010260724906946,0.010260724906946,0,0,0,
1625837303.64823,0,0,5.79,4.88,0,0,1.21951222419739,-0.02294921875,0.001953125,0,0.001670061680937,0,0.00157280016061,0.000131252242745,0.001419066742233,,,8.01144291877271,8.01144291877272,0.008948396973548,0.008948396973548,0,0,0,
1625837303.67823,0,0,5.79,4.88,0,0,1.21951222419739,-0.02294921875,0.001953125,0,0.001615635014897,0,0.001590355873676,7.86411528639599E-05,0.001511558988902,,,8.0118397487181,8.01183974871811,0.010281111207806,0.010281111207806,0,0,0,
1625837303.75223,0,0,5.78,4.88,0,0,1.21951222419739,-0.00732421875,0.00341796875,0,0.00159464274845,0,0.001556003847732,9.93845325454648E-05,0.001475122194412,,,8.0118794998281,8.0118794998281,0.009639361464184,0.009639361464184,0,0,0,
1625837303.79823,0,0,5.78,4.88,0,0,1.21951222419739,-0.00732421875,0.00341796875,0,0.001516813887826,0,0.001534419548083,7.40385056388184E-05,0.00152316837389,,,8.01218593651982,8.01218593651983,0.010354535606673,0.010354535606673,0,0,0,
1625837303.85823,0,0,5.77,4.9,0,0,1.21951222419739,-0.009765625,-0.0029296875,0,0.001420329878496,0,0.00147377673711,6.97146943862562E-05,0.001504254646221,,,8.01232047397119,8.01232047397119,0.010118439426329,0.010118439426329,0,0,0,
1625837303.91774,0,0,5.78,4.89,0,0,1.28048777580261,-0.0048828125,0.00537109375,0,0.001617849590798,0,0.001467611095738,7.70173890773497E-05,0.001429519131739,,,8.01241129662718,8.01241129662718,0.008869548497825,0.008869548497825,0,0,0,
1625837303.97774,0,0,5.78,4.89,0,0,1.28048777580261,-0.01171875,0.001953125,0,0.001836761075974,0,0.00147140183577,8.53035278635919E-05,0.001439557217951,,,8.01262065681545,8.01262065681546,0.009354574152015,0.009354574152015,0,0,0,
1625837304.04374,0,0,5.77,4.9,0,0,1.28048777580261,-0.01171875,0.001953125,0,0.001646992645401,0,0.001572547066882,9.05587262877431E-05,0.001456275507142,,,8.01283600321466,8.01283600321466,0.009740815240346,0.009740815240346,0,0,0,
1625837304.09774,0,0,5.77,4.9,0,0,1.28048777580261,-0.01171875,0.001953125,0,0.001553830472971,0,0.001561812274394,7.63847347026327E-05,0.001487054074376,,,8.01309187179965,8.01309187179966,0.010204782749222,0.010204782749222,0,0,0,
1625837304.15774,0,0,5.78,4.89,0,0,1.21951222419739,-0.01220703125,-0.001953125,0,0.001455289472948,0,0.001419923670222,7.16670756801348E-05,0.001484681665263,,,8.01349797002406,8.01349797002406,0.010393530212406,0.010393530212406,0,0,0,
1625837304.25174,0,0,5.79,4.87,0,0,1.15853655338287,-0.0107421875,0.00390625,0,0.001760731754968,0,0.001510634989071,0.000142714724057,0.001416009656537,,,8.01336578323049,8.01336578323049,0.008928076806998,0.008928076806998,0,0,0,
1625837304.27774,0,0,5.79,4.87,0,0,1.15853655338287,-0.0107421875,0.00390625,0,0.001710455887461,0,0.001601642707144,8.18988610808286E-05,0.001516212838962,,,8.01378816396684,8.01378816396685,0.010380960855223,0.010380960855223,0,0,0,
1625837304.35574,0,0,5.79,4.88,0,0,1.34146344661713,-0.009765625,0.00048828125,0,0.001843497297699,0,0.001672083413533,0.000118471726277,0.001543063370277,,,8.01413594165786,8.01413594165787,0.010445799140665,0.010445799140665,0,0,0,
1625837304.39774,0,0,5.79,4.88,0,0,1.34146344661713,-0.009765625,0.00048828125,0,0.001761000714795,0,0.001672083413533,8.42176908044351E-05,0.001543063370277,,,8.01413594165786,8.01413594165787,0.010445799140665,0.010445799140665,0,0,0,
1625837304.45774,0,0,5.78,4.88,0,0,1.28048777580261,0.00439453125,0.01123046875,0,0.00164910931584,0,0.001650194270541,8.01798226162511E-05,0.001525325716358,,,8.01424575604274,8.01424575604275,0.010080203221239,0.010080203221239,0,0,0,
1625837304.45974,0,0,5.78,4.88,0,0,1.28048777580261,-0.01708984375,0.001953125,0,0.00156049034958,0,0.001583927782007,8.06737090805564E-05,0.001532168498328,,,8.0144672361766,8.01446723617661,0.010286985298918,0.010286985298918,0,0,0,
1625837304.54374,0,0,5.79,4.89,0,0,1.28048777580261,-0.01708984375,0.001953125,0,0.001502307981164,0,0.001537928143069,0.00011340132463,0.001457093120465,,,8.0143481186427,8.0143481186427,0.008905055737297,0.008905055737297,0,0,0,
1625837304.57774,0,0,5.79,4.89,0,0,1.28048777580261,-0.01708984375,0.001953125,0,0.001447523374943,0,0.001490972441921,7.11677758241279E-05,0.00152933099694,,,8.01470656190594,8.01470656190595,0.010079031504159,0.010079031504159,0,0,0,
1625837304.64774,0,0,5.79,4.89,0,0,1.28048777580261,-0.00634765625,0.001953125,0,0.001499961210884,0,0.00143045277487,8.62545091311425E-05,0.001492712910022,,,8.0147709098945,8.0147709098945,0.009595916300115,0.009595916300115,0,0,0,
1625837304.69774,0,0,5.79,4.89,0,0,1.28048777580261,-0.00634765625,0.001953125,0,0.001420905280958,0,0.001420865463937,6.88582481271685E-05,0.001521702031164,,,8.01505111657183,8.01505111657184,0.010208120704115,0.010208120704115,0,0,0,
1625837304.75774,0,0,5.79,4.89,0,0,1.28048777580261,-0.00390625,0.00048828125,0,0.001330595661897,0,0.001366434528727,6.50922342317696E-05,0.001503703344729,,,8.01521035704,8.01521035704,0.010117084978373,0.010117084978373,0,0,0,
1625837304.85574,0,0,5.8,4.88,0,0,1.21951222419739,-0.01416015625,0.0048828125,0,0.001784438752568,0,0.001376064620735,0.000147235315046,0.001424261116055,,,8.01530146799485,8.01530146799485,0.008870102128956,0.008870102128956,0,0,0,
1625837304.87774,0,0,5.8,4.88,0,0,1.21951222419739,-0.01416015625,0.0048828125,0,0.001740703194746,0,0.001544393932449,8.11635998893304E-05,0.001523645461489,,,8.01574820955315,8.01574820955316,0.010450242596216,0.010450242596216,0,0,0,
1625837304.93774,0,0,5.79,4.89,0,0,1.28048777580261,-0.0029296875,0.001953125,0,0.001630724497425,0,0.001569984008062,7.83670561432696E-05,0.001476659467589,,,8.01574029121607,8.01574029121607,0.009552820189398,0.009552820189398,0,0,0,
1625837304.99774,0,0,5.79,4.89,0,0,1.28048777580261,-0.0146484375,0.013671875,0,0.001629641979564,0,0.001536128535417,7.89448892266955E-05,0.001485477009963,,,8.01595727604571,8.01595727604571,0.009890797699913,0.009890797699913,0,0,0,
1625837305.05774,0,0,5.8,4.9,0,0,1.28048777580261,-0.0146484375,0.013671875,0,0.001625680112451,0,0.001513383539436,7.84841979337082E-05,0.001492003299269,,,8.01617672782276,8.01617672782276,0.010145684544809,0.010145684544809,0,0,0,
1625837305.14774,0,0,5.79,4.9,0,0,1.21951222419739,0.00146484375,0.0107421875,0,0.001646919721567,0,0.001508806710867,0.000127597222953,0.001420926409768,,,8.01626798636412,8.01626798636413,0.008884824554481,0.008884824554481,0,0,0,
1625837305.17774,0,0,5.79,4.9,0,0,1.21951222419739,0.00146484375,0.0107421875,0,0.001593291399296,0,0.001508806710867,7.67485065624258E-05,0.001420926409768,,,8.01626798636412,8.01626798636413,0.008884824554481,0.008884824554481,0,0,0,
1625837305.25174,0,0,5.79,4.9,0,0,1.34146344661713,-0.01220703125,0.00537109375,0,0.001890745505904,0,0.001650013640814,0.000111049293871,0.001527535554089,,,8.01700843693387,8.01700843693388,0.01032649042886,0.01032649042886,0,0,0,
1625837305.29774,0,0,5.79,4.9,0,0,1.34146344661713,-0.01220703125,0.00537109375,0,0.001798644326854,0,0.001649874258017,8.48183199630257E-05,0.001518128657832,,,8.01714300139737,8.01714300139737,0.010097826433983,0.010097826433983,0,0,0,
1625837305.35774,0,0,5.78,4.91,0,0,1.28048777580261,-0.0068359375,0.0087890625,0,0.00168433531309,0,0.001649874258017,8.13675555888029E-05,0.001518128657832,,,8.01714300139737,8.01714300139737,0.010097826433983,0.010097826433983,0,0,0,
1625837305.41774,0,0,5.79,4.92,0,0,1.34146344661713,0.00146484375,0.00341796875,0,0.001693500361883,0,0.001603237556687,8.17784195055419E-05,0.001469380392947,,,8.01744618314519,8.01744618314519,0.009359310340246,0.009359310340246,0,0,0,
1625837305.47774,0,0,5.79,4.92,0,0,1.34146344661713,-0.00830078125,-0.005859375,0,0.001628247310464,0,0.001603237556687,7.94634927837532E-05,0.001469380392947,,,8.01744618314519,8.01744618314519,0.009359310340246,0.009359310340246,0,0,0,
1625837305.54374,0,0,5.79,4.92,0,0,1.34146344661713,-0.00830078125,-0.005859375,0,0.001332583046498,0,0.001559737423754,7.74189388097219E-05,0.001482624728466,,,8.01766143653615,8.01766143653615,0.009744736206844,0.009744736206844,0,0,0,
1625837305.59774,0,0,5.79,4.92,0,0,1.34146344661713,-0.00830078125,-0.005859375,0,0.001257100715457,0,0.001401240518919,6.36152006021713E-05,0.001500753571941,,,8.01791723933588,8.01791723933588,0.010208063936584,0.010208063936584,0,0,0,
1625837305.65774,0,0,5.81,4.92,0,0,1.21951222419739,-0.0048828125,0,0,0.001177314798309,0,0.001289162514218,5.8774752444976E-05,0.001485015309835,,,8.01810113547454,8.01810113547454,0.010224299062702,0.010224299062702,0,0,0,
1625837305.75174,0,0,5.82,4.91,0,0,1.21951222419739,-0.00927734375,0.005859375,0,0.001514949373668,0,0.001259475707584,0.000121951512659,0.001401401859325,,,8.01819094842899,8.01819094842899,0.00892978395065,0.00892978395065,0,0,0,
1625837305.77774,0,0,5.82,4.91,0,0,1.28048777580261,0.0048828125,0.001953125,0,0.001471710798798,0,0.001353353955869,7.0098496577621E-05,0.00147877698386,,,8.01861347446703,8.01861347446704,0.01038267437164,0.01038267437164,0,0,0,
1625837305.85574,0,0,5.81,4.9,0,0,1.28048777580261,0.0048828125,0.001953125,0,0.001600229464642,0,0.001352107238488,0.000102409466986,0.00143393347652,,,8.01862908935997,8.01862908935997,0.009609343360419,0.009609343360419,0,0,0,
1625837305.89774,0,0,5.81,4.9,0,0,1.28048777580261,0.0048828125,0.001953125,0,0.00152863001822,0,0.001429535983572,7.29168796098564E-05,0.001484203784557,,,8.01896125747388,8.01896125747388,0.010447148098753,0.010447148098753,0,0,0,
1625837305.95774,0,0,5.8,4.89,0,0,1.15853655338287,-0.0166015625,0.0029296875,0,0.001431509152267,0,0.001413336625831,6.95176595046719E-05,0.00145994285751,,,8.0190709955878,8.0190709955878,0.010081358505364,0.010081358505364,0,0,0,
1625837305.95974,0,0,5.8,4.89,0,0,1.28048777580261,-0.0146484375,0.001953125,0,0.001621713743005,0,0.001356413675507,7.87064354585806E-05,0.001457135227611,,,8.01929251443352,8.01929251443352,0.010288055869125,0.010288055869125,0,0,0,
1625837306.04374,0,0,5.8,4.89,0,0,1.28048777580261,-0.0146484375,0.001953125,0,0.001493063377586,0,0.001423279888547,0.000112182583727,0.001459780979992,,,8.0195317756335,8.0195317756335,0.010079916516208,0.010079916516208,0,0,0,
1625837306.07774,0,0,5.8,4.89,0,0,1.28048777580261,-0.01220703125,0.0107421875,0,0.001438627699011,0,0.001423279888547,7.05020382021492E-05,0.001459780979992,,,8.0195317756335,8.0195317756335,0.010079916516208,0.010079916516208,0,0,0,
1625837306.14774,0,0,5.8,4.9,0,0,1.28048777580261,-0.01220703125,0.0107421875,0,0.001542939298774,0,0.001386327010734,8.76296182749985E-05,0.001426253073668,,,8.01959600957283,8.01959600957283,0.009596679022474,0.009596679022474,0,0,0,
1625837306.19774,0,0,5.8,4.9,0,0,1.28048777580261,-0.0078125,0.00390625,0,0.001461646419146,0,0.001418180154743,7.03519287982456E-05,0.001458043815217,,,8.01987635928374,8.01987635928374,0.01020889329183,0.01020889329183,0,0,0,
1625837306.25774,0,0,5.81,4.89,0,0,1.28048777580261,-0.0078125,0.00390625,0,0.001368763672554,0,0.001314129114748,6.67486118496317E-05,0.001440709989993,,,8.02025726055004,8.02025726055004,0.010315827556586,0.010315827556586,0,0,0,
1625837306.31774,0,0,5.8,4.88,0,0,1.21951222419739,-0.009765625,-0.0009765625,0,0.001587216409085,0,0.001408824740951,7.5296394618289E-05,0.001373729103312,,,8.02012640944459,8.02012640944459,0.008870605103276,0.008870605103276,0,0,0,
1625837306.37774,0,0,5.8,4.91,0,0,1.21951222419739,0.00244140625,0.01025390625,0,0.001730580066995,0,0.001424081541023,8.12604484285767E-05,0.001384980777974,,,8.02033859725035,8.02033859725036,0.009369427943272,0.009369427943272,0,0,0,
1625837306.4504,0,0,5.8,4.91,0,0,1.21951222419739,0.00244140625,0.01025390625,0,0.001830427310481,0,0.001501107812812,9.13724584547304E-05,0.001400373365886,,,8.02055410812274,8.02055410812274,0.009752959604,0.009752959604,0,0,0,
1625837306.5084,0,0,5.8,4.91,0,0,1.21951222419739,-0.0078125,0.00341796875,0,0.001719317616811,0,0.001609470428053,8.28184296832294E-05,0.001443615321011,,,8.02085152132055,8.02085152132055,0.010388301213146,0.010388301213146,0,0,0,
1625837306.5684,0,0,5.8,4.91,0,0,1.21951222419739,-0.0078125,0.00341796875,0,0.001743583528891,0,0.00159169503874,8.33496075437576E-05,0.001454378577558,,,8.02106156326395,8.02106156326395,0.010465462761868,0.010465462761868,0,0,0,
1625837306.6284,0,0,5.8,4.92,0,0,1.15853655338287,-0.0087890625,0.00341796875,0,0.001633647184245,0,0.001605562750176,7.9375664501396E-05,0.001392635264106,,,8.02114685989956,8.02114685989957,0.009061464787532,0.009061464787532,0,0,0,
1625837306.6884,0,0,5.8,4.92,0,0,1.15853655338287,-0.0087890625,0.00341796875,0,0.001562714857181,0,0.001568893037366,7.67600419121294E-05,0.001410436964676,,,8.02136134537607,8.02136134537608,0.009516222888577,0.009516222888577,0,0,0,
1625837306.7624,0,0,5.82,4.91,0,0,1.15853655338287,-0.001953125,0.00390625,0,0.001717788453541,0,0.001513630415433,0.000103932181165,0.001423303283787,,,8.02157871548245,8.02157871548245,0.00986398471725,0.00986398471725,0,0,0,
1625837306.8084,0,0,5.82,4.91,0,0,1.15853655338287,-0.001953125,0.00390625,0,0.001633935948174,0,0.001565520872495,7.83838303884406E-05,0.001476043790309,,,8.02188941005833,8.02188941005833,0.010526480595372,0.010526480595372,0,0,0,
1625837306.8684,0,0,5.82,4.91,0,0,1.28048777580261,-0.0087890625,0.0107421875,0,0.001529962990958,0,0.001531993919487,7.44943454374868E-05,0.001462747462115,,,8.02202357877865,8.02202357877866,0.010246476639723,0.010246476639723,0,0,0,
1625837306.9504,0,0,5.83,4.9,0,0,1.28048777580261,-0.00537109375,0.0029296875,0,0.001808129353865,0,0.001531791746903,0.000124046002463,0.001395162973042,,,8.02211112378135,8.02211112378136,0.008941096639146,0.008941096639146,0,0,0,
1625837306.9884,0,0,5.83,4.9,0,0,1.15853655338287,-0.00244140625,0.015625,0,0.001735038661492,0,0.001634013689005,8.31483272698661E-05,0.001472666190168,,,8.02245931512182,8.02245931512183,0.0100465620465,0.0100465620465,0,0,0,
1625837307.0544,0,0,5.81,4.9,0,0,1.15853655338287,-0.00244140625,0.015625,0,0.00173210635828,0,0.001626279030718,9.28919838185538E-05,0.001453504369667,,,8.02254667155664,8.02254667155665,0.009678052293201,0.009678052293201,0,0,0,
1625837307.1084,0,0,5.81,4.9,0,0,1.15853655338287,-0.00244140625,0.015625,0,0.001633861477125,0,0.001630487447723,7.92929819761914E-05,0.001487456876683,,,8.02280326623195,8.02280326623195,0.010156578184298,0.010156578184298,0,0,0,
1625837307.1684,0,0,5.81,4.9,0,0,1.21951222419739,-0.00732421875,0.005859375,0,0.001529927591646,0,0.001576567865775,7.48949285603167E-05,0.001487851217015,,,8.02298739398054,8.02298739398054,0.010185368616236,0.010185368616236,0,0,0,
1625837307.2624,0,0,5.8,4.89,0,0,1.21951222419739,-0.01318359375,0.0078125,0,0.001886548243262,0,0.001583402561939,0.000151618656699,0.001421827167988,,,8.02307660266521,8.02307660266522,0.008908188832003,0.008908188832003,0,0,0,
1625837307.2884,0,0,5.8,4.89,0,0,1.28048777580261,-0.0078125,-0.005859375,0,0.001832627358056,0,0.001698834587201,8.71807712755679E-05,0.001529858200563,,,8.02350006302086,8.02350006302086,0.010365056061364,0.010365056061364,0,0,0,
1625837307.3664,0,0,5.81,4.88,0,0,1.28048777580261,-0.0078125,-0.005859375,0,0.001759241240006,0,0.001700962585557,0.00011693450693,0.001491117352767,,,8.0235154354866,8.02351543548661,0.009596261458365,0.009596261458365,0,0,0,
1625837307.4084,0,0,5.81,4.88,0,0,1.21951222419739,-0.00537109375,0.005859375,0,0.001680381998137,0,0.001689089084156,8.20619653663975E-05,0.001559573732558,,,8.02384798500361,8.02384798500362,0.010436797516117,0.010436797516117,0,0,0,
1625837307.4684,0,0,5.81,4.9,0,0,1.21951222419739,-0.00537109375,0.005859375,0,0.001568937863215,0,0.001630853934156,7.76166074846854E-05,0.001538417254506,,,8.0239577121326,8.0239577121326,0.010073592938337,0.010073592938337,0,0,0,
1625837307.5544,0,0,5.81,4.9,0,0,1.21951222419739,-0.013671875,-0.0068359375,0,0.001666054414876,0,0.001519687491125,0.000121526959967,0.001460319546349,,,8.02404870696735,8.02404870696736,0.008844776848223,0.008844776848223,0,0,0,
1625837307.5884,0,0,5.81,4.91,0,0,1.21951222419739,-0.00146484375,0.00439453125,0,0.001605097402141,0,0.001558501829671,7.70627631692639E-05,0.001539165834188,,,8.02441832846981,8.02441832846981,0.0100848887831,0.0100848887831,0,0,0,
1625837307.6584,0,0,5.81,4.91,0,0,1.21951222419739,-0.00146484375,0.00439453125,0,0.001747410594761,0,0.001531056393093,9.82142954482474E-05,0.001506883665524,,,8.02448256749368,8.02448256749369,0.009599667808249,0.009599667808249,0,0,0,
1625837307.7084,0,0,5.8,4.92,0,0,1.28048777580261,-0.0146484375,0.01318359375,0,0.001655203412295,0,0.00158651522122,7.92175387423439E-05,0.001546837040943,,,8.02476280078136,8.02476280078136,0.010210324381821,0.010210324381821,0,0,0,
1625837307.7684,0,0,5.8,4.92,0,0,1.28048777580261,-0.0146484375,0.01318359375,0,0.001549879318089,0,0.001555157190706,7.53834323840283E-05,0.001537693419654,,,8.02492199295258,8.02492199295258,0.010118172563423,0.010118172563423,0,0,0,
1625837307.8664,0,0,5.81,4.91,0,0,1.21951222419739,-0.0009765625,-0.00244140625,0,0.001820718611981,0,0.001576800053953,0.000155243597917,0.001467148384278,,,8.02501294435068,8.02501294435068,0.008869983159922,0.008869983159922,0,0,0,
1625837307.8884,0,0,5.81,4.91,0,0,1.15853655338287,-0.005859375,-0.00048828125,0,0.001775939704677,0,0.0016650180166,8.50045219770399E-05,0.001579824583498,,,8.02545975802776,8.02545975802776,0.010449791035731,0.010449791035731,0,0,0,
1625837307.9504,0,0,5.81,4.91,0,0,1.15853655338287,-0.005859375,-0.00048828125,0,0.001813377749943,0,0.001658620921207,8.91733646452844E-05,0.001530560781016,,,8.02545176146662,8.02545176146662,0.009552191536211,0.009552191536211,0,0,0,
1625837308.0084,0,0,5.81,4.91,0,0,1.21951222419739,-0.013671875,-0.00390625,0,0.001703619852142,0,0.001684176703208,8.2308339085998E-05,0.001551815139947,,,8.02568106690986,8.02568106690986,0.009946756163875,0.009946756163875,0,0,0,
1625837308.0684,0,0,5.8,4.9,0,0,1.21951222419739,-0.013671875,-0.00390625,0,0.001811679471211,0,0.001636850809446,8.56197036582775E-05,0.001558818651001,,,8.02588860603232,8.02588860603233,0.010134795887678,0.010134795887678,0,0,0,
1625837308.1584,0,0,5.8,4.89,0,0,1.34146344661713,-0.005859375,0.00390625,0,0.001768104556009,0,0.001667145591578,0.000137928563815,0.001491523707144,,,8.02597993203825,8.02597993203825,0.008879672227115,0.008879672227115,0,0,0,
1625837308.1884,0,0,5.8,4.89,0,0,1.34146344661713,-0.0078125,0.00927734375,0,0.001710340005386,0,0.001685010812593,8.28003759038501E-05,0.001590559719916,,,8.02637460739828,8.02637460739829,0.010227762251486,0.010227762251486,0,0,0,
1625837308.2624,0,0,5.8,4.88,0,0,1.34146344661713,-0.0078125,0.00927734375,0,0.001771096146411,0,0.001648387946577,0.000108563847629,0.00155364649562,,,8.02641502211236,8.02641502211236,0.00960033248483,0.00960033248483,0,0,0,
1625837308.3084,0,0,5.81,4.88,0,0,1.34146344661713,-0.0078125,0.00927734375,0,0.001684629777264,0,0.001662436776249,8.14326603221823E-05,0.001608168726375,,,8.02672055817817,8.02672055817818,0.010325581167647,0.010325581167647,0,0,0,
1625837308.3684,0,0,5.81,4.88,0,0,1.28048777580261,0.00048828125,0.0068359375,0,0.00157743258794,0,0.001612534552486,7.70762431809113E-05,0.001592042290884,,,8.02685515535187,8.02685515535187,0.010097661703699,0.010097661703699,0,0,0,
1625837308.4504,0,0,5.8,4.89,0,0,1.28048777580261,-0.01123046875,0.00146484375,0,0.001557439140321,0,0.001579077692537,0.000112874052065,0.001515651630409,,,8.02694646246161,8.02694646246162,0.008858956829399,0.008858956829399,0,0,0,
1625837308.4884,0,0,5.8,4.88,0,0,1.15853655338287,-0.0087890625,0.00146484375,0,0.001494346938895,0,0.001536266497684,7.42557029417965E-05,0.001584081235974,,,8.02729071459579,8.02729071459579,0.009983004053871,0.009983004053871,0,0,0,
1625837308.5544,0,0,5.8,4.88,0,0,1.15853655338287,-0.0087890625,0.00146484375,0,0.001557613449026,0,0.001473078333018,8.34765464069764E-05,0.00155284275283,,,8.02737876367383,8.02737876367383,0.00963071429504,0.00963071429504,0,0,0,
1625837308.6084,0,0,5.78,4.89,0,0,1.28048777580261,-0.001953125,0.0048828125,0,0.001469268637633,0,0.001465090002589,7.12799320309436E-05,0.0015722307506,,,8.02763382307616,8.02763382307616,0.010121208447879,0.010121208447879,0,0,0,
1625837308.6684,0,0,5.78,4.89,0,0,1.28048777580261,-0.001953125,0.0048828125,0,0.001375806945377,0,0.001408533108674,6.73391767125348E-05,0.001560119019812,,,8.02781752067586,8.02781752067587,0.010159416124131,0.010159416124131,0,0,0,
1625837308.7284,0,0,5.78,4.9,0,0,1.21951222419739,-0.01123046875,0.0126953125,0,0.001562024027818,0,0.001404476383245,7.44382844452712E-05,0.00147787233807,,,8.02790810830931,8.02790810830931,0.008894172799847,0.008894172799847,0,0,0,
1625837308.8484,0,0,5.78,4.91,0,0,1.28048777580261,-0.01123046875,0.00244140625,0,0.001553175559941,0,0.00140826489509,7.52447150384451E-05,0.001483180226533,,,8.02812042798448,8.02812042798449,0.009388056234417,0.009388056234417,0,0,0,
1625837308.9084,0,0,5.78,4.91,0,0,1.28048777580261,-0.01123046875,0.00244140625,0,0.001609937429831,0,0.001387464442545,7.77175310954513E-05,0.001555775029903,,,8.02872324211534,8.02872324211535,0.011362150019052,0.011362150019052,0,0,0,
1625837308.9581,0,0,5.78,4.91,0,0,1.34146344661713,-0.00732421875,0.0048828125,0,0.001409798390415,0,0.001338105072111,6.75372647117884E-05,0.001511950464728,,,8.02910624444507,8.02910624444507,0.01084604682997,0.01084604682997,0,0,0,
1625837309.0441,0,0,5.78,4.9,0,0,1.28048777580261,-0.00830078125,0.01025390625,0,0.001409798390415,0,0.001320185365181,6.75372647117884E-05,0.001424585380793,,,8.0289553846392,8.02895538463921,0.009256119614078,0.009256119614078,0,0,0,
1625837309.0781,0,0,5.78,4.9,0,0,1.28048777580261,-0.00830078125,0.01025390625,0,0.00149613664642,0,0.001398863656714,7.12293252259092E-05,0.001487075782252,,,8.0293398215455,8.02933982154551,0.010399117923349,0.010399117923349,0,0,0,
1625837309.1481,0,0,5.78,4.89,0,0,1.28048777580261,-0.0126953125,0.00244140625,0,0.001598424993888,0,0.00139057874116,9.00696707118609E-05,0.001448985585898,,,8.02939948721756,8.02939948721756,0.009831018093753,0.009831018093753,0,0,0,
1625837309.1981,0,0,5.78,4.89,0,0,1.28048777580261,-0.0126953125,0.00244140625,0,0.001514134597717,0,0.001444310844406,7.25724227455465E-05,0.001478584837926,,,8.02968614505691,8.02968614505691,0.010382156984856,0.010382156984856,0,0,0,
1625837309.2581,0,0,5.77,4.9,0,0,1.28048777580261,-0.0126953125,0.00244140625,0,0.001417838944841,0,0.001416557554386,6.90089072350865E-05,0.001462936637263,,,8.0298454627463,8.0298454627463,0.010243436122768,0.010243436122768,0,0,0,
1625837309.3781,0,0,5.77,4.89,0,0,1.28048777580261,-0.01611328125,0.0068359375,0,0.001594578765773,0,0.001518669841546,7.73070564137945E-05,0.001323384719628,,,8.02982496267536,8.02982496267536,0.007831307856831,0.007831307856831,0,0,0,
1625837309.4981,0,0,5.78,4.88,0,0,1.21951222419739,-0.01416015625,0.00390625,0,0.001595513903141,0,0.001498060839705,7.67527863058832E-05,0.001449733670767,,,8.03081544941744,8.03081544941745,0.010862035006275,0.010862035006275,0,0,0,
1625837309.5441,0,0,5.77,4.89,0,0,1.28048777580261,-0.00146484375,0.00146484375,0,0.001779672665446,0,0.001498060839705,0.000162578737,0.001449733670767,,,8.03081544941744,8.03081544941745,0.010862035006275,0.010862035006275,0,0,0,
1625837309.5581,0,0,5.77,4.89,0,0,1.28048777580261,-0.00146484375,0.00146484375,0,0.001750646274626,0,0.001604035635139,8.18408919623866E-05,0.001485914636018,,,8.03095720131635,8.03095720131636,0.010579764131951,0.010579764131951,0,0,0,
1625837309.6481,0,0,5.77,4.9,0,0,1.21951222419739,-0.01416015625,-0.00439453125,0,0.001826605538024,0,0.001614645290634,0.000139157177356,0.001430222463179,,,8.03090362712122,8.03090362712123,0.00943549630097,0.00943549630097,0,0,0,
1625837309.6781,0,0,5.77,4.9,0,0,1.21951222419739,-0.01416015625,-0.00439453125,0,0.001767013623618,0,0.001684098440279,8.40818976494662E-05,0.001528015651631,,,8.03130864919422,8.03130864919422,0.010656309161131,0.010656309161131,0,0,0,
1625837309.7521,0,0,5.77,4.91,0,0,1.21951222419739,-0.00244140625,0.0078125,0,0.001737017805809,0,0.001667238582786,0.000107586666826,0.001492546294817,,,8.03134503760918,8.03134503760919,0.009915664622764,0.009915664622764,0,0,0,
1625837309.7981,0,0,5.77,4.91,0,0,1.21951222419739,-0.00244140625,0.0078125,0,0.001652185620483,0,0.001599295926169,8.03517788333046E-05,0.001530545615856,,,8.03178962384986,8.03178962384986,0.010271217868641,0.010271217868641,0,0,0,
1625837309.8581,0,0,5.77,4.9,0,0,1.21951222419739,-0.0146484375,0.00732421875,0,0.001698409160142,0,0.001576527389123,8.06696967513997E-05,0.001450038385249,,,8.03165864800621,8.03165864800621,0.00883723339149,0.00883723339149,0,0,0,
1625837309.9401,0,0,5.77,4.9,0,0,1.28048777580261,-0.0107421875,-0.0009765625,0,0.00149658175357,0,0.001583864654324,0.00010853005204,0.001465237673222,,,8.03187069981314,8.03187069981315,0.009342017274795,0.009342017274795,0,0,0,
1625837309.9781,0,0,5.77,4.9,0,0,1.28048777580261,-0.0107421875,-0.0009765625,0,0.00143593919748,0,0.00150665390866,7.13826193440714E-05,0.001532380256977,,,8.03222406800844,8.03222406800844,0.010357835994389,0.010357835994389,0,0,0,
1625837310.0381,0,0,5.77,4.91,0,0,1.34146344661713,-0.005859375,-0.00390625,0,0.001345167839093,0,0.001431630034835,6.65876971656497E-05,0.00150011094035,,,8.03230985080332,8.03230985080332,0.009909505102162,0.009909505102162,0,0,0,
1625837310.0981,0,0,5.77,4.91,0,0,1.34146344661713,-0.005859375,-0.00390625,0,0.001523581611357,0,0.001343196343562,7.29685051712061E-05,0.00149531592363,,,8.03252994810072,8.03252994810073,0.010160454036725,0.010160454036725,0,0,0,
1625837310.1581,0,0,5.77,4.89,0,0,1.28048777580261,-0.00830078125,0.0009765625,0,0.001426692090398,0,0.001350801736215,6.94147473658615E-05,0.001491562154377,,,8.03275194629553,8.03275194629553,0.010348055171108,0.010348055171108,0,0,0,
1625837310.2521,0,0,5.77,4.89,0,0,1.28048777580261,-0.013671875,0.00390625,0,0.001790871186655,0,0.001388568106231,0.000141595662733,0.001412992698619,,,8.03283708909554,8.03283708909554,0.008997264401833,0.008997264401833,0,0,0,
1625837310.2781,0,0,5.77,4.89,0,0,1.28048777580261,-0.013671875,0.00390625,0,0.001739741442048,0,0.001550877170602,8.17389212683483E-05,0.00150576884369,,,8.03326529610379,8.03326529610379,0.010435184192706,0.010435184192706,0,0,0,
1625837310.3381,0,0,5.76,4.89,0,0,1.28048777580261,-0.0068359375,0.0068359375,0,0.00178738974637,0,0.001571876244549,8.35709237474473E-05,0.001464421391238,,,8.0332784771893,8.0332784771893,0.009648120379978,0.009648120379978,0,0,0,
1625837310.3981,0,0,5.76,4.89,0,0,1.28048777580261,-0.0068359375,0.0068359375,0,0.001675602926015,0,0.001589481732935,8.06145269345173E-05,0.001488669605755,,,8.03371817232573,8.03371817232573,0.010201207136059,0.010201207136059,0,0,0,
1625837310.4581,0,0,5.78,4.91,0,0,1.28048777580261,-0.01171875,-0.0009765625,0,0.001648334800126,0,0.001589481732935,7.97456436368551E-05,0.001488669605755,,,8.03371817232573,8.03371817232573,0.010201207136059,0.010201207136059,0,0,0,
1625837310.5441,0,0,5.78,4.9,0,0,1.28048777580261,-0.01220703125,0.00732421875,0,0.001736854022809,0,0.001550558073968,0.000126339317016,0.001419367675613,,,8.03380594351338,8.03380594351338,0.0089167875869,0.0089167875869,0,0,0,
1625837310.5781,0,0,5.78,4.9,0,0,1.28048777580261,-0.01220703125,0.00732421875,0,0.00167315496654,0,0.001606362436162,8.01764437841428E-05,0.001503579870957,,,8.0341790586798,8.0341790586798,0.010142880380514,0.010142880380514,0,0,0,
1625837310.6481,0,0,5.78,4.89,0,0,1.28048777580261,-0.01220703125,0.00830078125,0,0.001873740523023,0,0.001585010933682,0.000104442702819,0.001475358721599,,,8.03424221142106,8.03424221142106,0.009643812639395,0.009643812639395,0,0,0,
1625837412.13552,0,0,5.84,4.87,0,0,1.15853655338287,-0.00634765625,0.00830078125,0,0.001679973148811,0,0.001590090072541,0.000140824793001,0.001662237114775,,,8.36059624770713,8.36059624770713,0.009811527839201,0.009811527839201,0,0,0,
1625837412.16152,0,0,5.82,4.87,0,0,1.34146344661713,-0.01513671875,0.00439453125,0,0.001963598702862,0,0.001549621890428,0.000176461727518,0.001640218916637,,,8.36149495303781,8.36149495303782,0.01029552091126,0.01029552091126,0,0,0,
1625837412.23952,0,0,5.76,4.89,0,0,1.21951222419739,-0.01220703125,0.00244140625,0,0.001939528194323,0,0.001830921154439,9.32129697906279E-05,0.001657209836013,,,8.36223736288128,8.36223736288129,0.010152224317713,0.010152224317713,0,0,0,
1625837412.28152,0,0,5.73,4.88,0,0,1.28048777580261,-0.01123046875,0.0087890625,0,0.001915083353639,0,0.001779265378493,0.00010194342977,0.001718361703645,,,8.36324318167951,8.36324318167951,0.010263985417999,0.010263985417999,0,0,0,
1625837412.34352,0,0,5.72,4.89,0,0,1.21951222419739,-0.0029296875,0.02001953125,0,0.001603933439881,0,0.00156706960327,7.86500309538176E-05,0.001662452218917,,,8.36394617768755,8.36394617768755,0.009949672504855,0.009949672504855,0,0,0,
1625837412.40152,0,0,5.7,4.87,0,0,1.28048777580261,-0.0185546875,-0.00244140625,0,0.001787007695343,0,0.001674322780787,0.00013142387371,0.001711555472421,,,8.36485417121451,8.36485417121451,0.010351324474739,0.010351324474739,0,0,0,
1625837412.44752,0,0,5.73,4.88,0,0,1.21951222419739,-0.015625,0.00439453125,0,0.001645059845901,0,0.001593399457059,8.07855632302285E-05,0.001644174602247,,,8.36544708066681,8.36544708066681,0.009146889919771,0.009146889919771,0,0,0,
1625837412.46152,0,0,5.73,4.87,0,0,1.34146344661713,-0.01171875,0.0068359375,0,0.001892638598034,0,0.001589175043455,0.000166976682291,0.001685384831437,,,8.36646733165897,8.36646733165897,0.010148530681713,0.010148530681713,0,0,0,
1625837412.52152,0,0,5.74,4.87,0,0,1.21951222419739,-0.0126953125,0.00830078125,0,0.001683536451301,0,0.001601376879602,8.20670244960552E-05,0.001645752968352,,,8.36728936071353,8.36728936071353,0.010339092334398,0.010339092334398,0,0,0,
1625837412.58152,0,0,5.73,4.86,0,0,1.28048777580261,-0.00146484375,0.00537109375,0,0.001834490923687,0,0.001671196949876,9.65552266047556E-05,0.001676296691493,,,8.36806758813806,8.36806758813806,0.010249134604789,0.010249134604789,0,0,0,
1625837412.64152,0,0,5.74,4.85,0,0,1.21951222419739,-0.00390625,0.0078125,0,0.001779217916177,0,0.001622653722314,8.34297510855761E-05,0.001683118020394,,,8.36916125967679,8.36916125967679,0.010833641407773,0.010833641407773,0,0,0,
1625837412.70152,0,0,5.73,4.87,0,0,1.28048777580261,-0.009765625,0.0068359375,0,0.001974240074094,0,0.001827475799389,9.35432887083486E-05,0.001687790638053,,,8.36991105459408,8.36991105459409,0.009937112073375,0.009937112073375,0,0,0,
1625837412.73952,0,0,5.71,4.89,0,0,1.28048777580261,-0.0126953125,0.001953125,0,0.002014540899769,0,0.001828004746957,0.000131175795003,0.001672200743747,,,8.37044140240392,8.37044140240392,0.009186524712556,0.009186524712556,0,0,0,
1625837412.76152,0,0,5.71,4.9,0,0,1.21951222419739,-0.0087890625,0.0087890625,0,0.001959201861338,0,0.001820739933985,0.000182791887915,0.001776843974979,,,8.3714678367804,8.37146783678041,0.010156253651461,0.010156253651461,0,0,0,
1625837412.84352,0,0,5.72,4.86,0,0,1.34146344661713,-0.00390625,0.001953125,0,0.001814025033032,0,0.001648332995934,0.000153701972784,0.001730762210523,,,8.37238169702547,8.37238169702547,0.009962654783345,0.009962654783345,0,0,0,
1625837412.88152,0,0,5.71,4.9,0,0,1.28048777580261,-0.005859375,0.00537109375,0,0.001849546336653,0,0.00170718085015,9.8448190229934E-05,0.001736875691218,,,8.37307442940022,8.37307442940022,0.010264843783107,0.010264843783107,0,0,0,
1625837412.94752,0,0,5.71,4.89,0,0,1.21951222419739,-0.0107421875,-0.0068359375,0,0.001546942603838,0,0.001510175056237,7.58828765463308E-05,0.001689314779739,,,8.37378118494501,8.37378118494501,0.009863398152694,0.009863398152694,0,0,0,
1625837413.00152,0,0,5.71,4.87,0,0,1.15853655338287,-0.00830078125,0.0029296875,0,0.001532493240515,0,0.001403095058244,0.000111465835944,0.001669862104941,,,8.37468891983244,8.37468891983245,0.010330825692775,0.010330825692775,0,0,0,
1625837413.06152,0,0,5.76,4.91,0,0,1.28048777580261,-0.0087890625,0.0078125,0.018400001525879,0.001551046400462,-3.33492938840264E-24,0.001468995608614,0.000150133316808,0.001595931249012,0.5,0,8.37635044033074,8.37635044033074,0.010317737439968,0.010317737439968,0,0,-3.33492938840264E-24,0
1625837413.13552,0,0,5.76,4.91,0.286556839942932,-0.032972391694784,-2.62195134162903,0.02978515625,-0.2490234375,0.090020901300917,0.006909611761934,-5.64056126901156E-06,0.004795500102859,-0.003423093743734,0.001442173686685,0.5,0,8.37718033699951,8.37718034051397,0.010350159678311,0.010350166523911,0,-2.58046360744405E-05,-5.64056126901156E-06,0
1625837413.18152,0,0,5.77,4.86,0.525318443775177,-1.03881736546185E-09,1.34146344661713,0.0966796875,-0.2255859375,0.147661085595412,0.012341287403963,-5.6724020149073E-05,0.015700018092201,-0.001934088531423,0.003891904223481,0.5,0,8.37801603303831,8.3780160935799,0.010266648636862,0.010266693278818,0,-0.00011738041215,-5.6724020149073E-05,0
1625837413.24152,0,0,5.83,4.73,0.484342992305756,-0.016483405604959,0,0.10986328125,-0.2099609375,0.203194314838757,0.014003026188872,-8.20777968936063E-05,0.015025750190635,-7.53787653749207E-06,0.005288858573329,0.5,0,8.37888859784471,8.37888892460828,0.009863423770507,0.009863560504919,0,-9.12206729169817E-05,-8.20777968936063E-05,0
1625837413.30152,0,0,5.8,4.67,0.511786282062531,-0.016491917893291,2.8048779964447,-0.408203125,-0.19580078125,0.225050525085132,0.008696094552289,-0.000102142383384,0.014554492354115,-0.000103097776754,0.004654452142572,0.5,0,8.37966835880698,8.37966919788066,0.009158708572518,0.009158977121174,0,-0.000133198074501,-0.000102142383384,0
1625837413.34352,0,0,5.75,4.69,0.166170343756676,0.032586440443993,1.09756100177765,0.05419921875,0.06982421875,0.2343576546276,0.011093471138779,-0.000121927922961,0.01177772102815,0.001382875935303,0.003764562289904,0.5,0,8.3813020793456,8.38130469917584,0.009172294625934,0.009172824212827,0,-0.000113219094049,-0.000121927922961,0
1625837413.36152,0,0,5.73,4.78,5.53035506278832E-10,5.14451681254968E-09,1.52439022064209,-0.00634765625,0.01318359375,0.157884953765531,0.003486738757247,-0.000116397965616,0.004796875913517,0.002554797017169,0.0037867399766,0.5,0,8.38309792856799,8.38310324022612,0.010154716425472,0.01015547606003,0,-9.60568425346169E-05,-0.000116397965616,0
1625837413.44752,0,0,5.6,4.93,0.07663194835186,-0.016483401879668,0.609756112098694,-0.0029296875,-0.01611328125,0.130213542970925,0.002058809593397,-9.74017356022229E-05,0.002462240086967,0.002042736678289,0.00322159275401,0.5,0,8.38440871467485,8.38441563014359,0.010311494063894,0.01031226015254,0,-6.38456799152927E-05,-9.74017356022229E-05,0
1625837413.48152,0,0,5.63,4.94,0.435152143239975,8.51121058076387E-06,-1.52439022064209,-0.2939453125,0.47900390625,0.147484449623268,0.011448111883999,-7.71567559778523E-05,0.006599668941605,0.000410820558138,0.002825227894388,0.5,0,8.38554041943396,8.3855486164211,0.010257505045711,0.010258174106379,0,-6.10485716102365E-05,-7.71567559778523E-05,0
1625837413.55152,0,0,5.7,4.62,0.507491946220398,0.016483405604959,-1.52439022064209,-0.1328125,0.00732421875,0.187276425360205,0.020425315795985,-0.000107092208459,0.021099920253185,0.001598845472018,0.004670519472165,0,0,8.38656588847459,8.38657512975341,0.009861195097391,0.009861783394483,0,-0.000143842415669,-0.000107092208459,0
1625837413.60152,0,0,5.75,4.48,0.143279314041138,-0.016500435769558,-0.670731723308563,-0.0419921875,0.06640625,0.203632834558725,0.008852178468278,-0.000131398882015,0.014846248258381,0.003585692063054,0.006848311233268,0,0,8.38787874478668,8.38788953602977,0.010201932440201,0.010202524370353,0,-0.000133280662194,-0.000131398882015,0
1625837413.63552,0,0,5.79,4.35,2.41806852319115E-10,2.24936580472956E-09,0.731707334518433,-0.01806640625,-0.00634765625,0.127316354119225,0.004342610250494,-0.000122154175486,0.005015215447732,0.003101976068078,0.005307152360693,0,0,8.38888102965246,8.38889300669685,0.009142199289055,0.009142819659376,0,-8.93029722432978E-05,-0.000122154175486,0
1625837413.66152,0,0,5.79,4.33,2.41806852319115E-10,2.24936580472956E-09,1.28048777580261,-0.00439453125,0.02490234375,0.074093513166181,0.032853390978531,-9.32963624446845E-05,0.013168211047307,0.00354020691913,0.004988033766121,0,1,8.39026523376105,8.39027868997678,0.009218563119788,0.009219148876573,0,-6.11480389202606E-05,-9.32963624446845E-05,0
1625837413.73952,0,0,5.8,4.29,4.89528501930181E-05,0.692422091960907,-30.8536586761475,-0.04736328125,0.0126953125,0.038771609047043,0.179845790062327,-7.9146096766061E-05,0.137411063426663,0.052067621049901,0.034079466515231,0,1,8.39146807169023,8.39148222511943,0.009964136705217,0.009964605838301,0,-8.20846755632979E-05,-7.9146096766061E-05,0
1625837413.78152,0,0,5.75,4.28,0.005202588625252,0.972708225250244,-54.3292694091797,0.0927734375,-0.01171875,0.02219148785133,0.162672917639692,-0.000111365107098,0.16459993726555,0.222250181503071,0.086976656976398,0,0,8.39209630129663,8.39211054774423,0.00982265604003,0.009823033564868,0,-0.00024827273915,-0.000111365107098,0
1625837413.84352,0,0,5.71,4.28,7.38269747557752E-08,-6.86762518853357E-07,1.15853655338287,-0.01611328125,0.02294921875,0.012006758246707,0.08528629251421,-0.000231061117874,0.14959794414648,0.317744936465899,0.226967414030098,0,0,8.39333700313584,8.39335132709537,0.010025411664559,0.010025660732766,0,-0.000315618786727,-0.000231061117874,0
1625837413.90152,0,0,5.69,4.27,2.48494487209427E-08,-2.31157656571668E-07,1.34146344661713,-0.0078125,0.005859375,0.006810270741992,0.011264404684491,-0.00027088925103,0.0432638605958,0.316371780785209,0.285756531125169,0,0,8.39414561676013,8.39415993521313,0.009164345719914,0.009164496220821,0,-0.000244824806261,-0.00027088925103,0
1625837413.94752,0,0,5.68,4.29,2.48494487209427E-08,-2.31157656571668E-07,1.21951222419739,0.0048828125,0.0107421875,0.003879707739136,0.004728048992085,-0.000251159445611,0.010387825626311,0.315799826491758,0.301574736188256,0,1,8.39509558447278,8.39510989868106,0.009847517294522,0.009847607123382,0,-0.000188677631049,-0.000251159445611,0
1625837413.96152,0,0,5.68,4.28,0.005543242674321,0.834499895572662,-29.5731716156006,0.02099609375,-0.005859375,0.001938429744422,0.166310403180931,-0.000199559808316,0.122629645900112,0.343660230305008,0.327494326276592,0,0,8.39605228489046,8.39606658730594,0.00959499980102,0.009595044689734,0,-0.000144877644845,-0.000199559808316,0
1625837414.02152,0,0,5.66,4.29,8.33534075095344E-10,-7.75380559758787E-09,2.01219511032104,-0.0361328125,0.0009765625,1.06388573040043E-05,0.12611152757811,-0.000177157414464,0.151263737670055,0.465450577709044,0.409139267259302,0,0,8.39727468418783,8.39728898231117,0.010348874853303,0.010348899635343,0,-0.000141876313778,-0.000177157414464,0
1625837414.08152,0,0,5.64,4.28,1.79016623746975E-08,1.66527087230861E-07,1.21951222419739,-0.00390625,0.005859375,-0.00012922629018,0.018702025329938,-0.000152612654332,0.079590341060471,0.463902383214014,0.444118555986228,0.5,0,8.39794523005527,8.39795952919048,0.009746247586921,0.009746262751965,0,-0.00010361609279,-0.000152612654332,0
1625837414.14152,0,0,5.63,4.27,0.259757578372955,0.016687389463186,-0.426829278469086,-0.0341796875,-0.095703125,0.087156491618495,-0.002114895605615,-0.000114330482689,0.006696418017176,0.452553326467491,0.456115537772847,0.5,0,8.39894127352584,8.39895557390521,0.009859461565351,0.009859471716186,0,-0.000105983053254,-0.000114330482689,0
1625837414.20152,0,0,5.61,4.24,0.533159077167511,1.75958321051439E-05,4.51219511032105,-0.109375,0.1650390625,0.121438403470255,0.019591604835687,-0.000127731130831,0.010904480360441,0.455504694899839,0.45600136122425,0.5,0,8.39974490829767,8.39975922168275,0.009759234269089,0.009759269861407,0,-9.99820172889039E-05,-0.000127731130831,0
1625837414.23952,0,0,5.62,4.12,0.490327566862106,-0.016669319942594,0.731707334518433,-0.17333984375,0.51953125,0.186963379407046,0.012924190819164,-9.58792318025279E-06,0.012328747817008,0.461108020378878,0.459508758574333,0.5,0,8.40055189570694,8.4005662976345,0.009207843816192,0.009207947534955,0,0.000127643187471,-9.58792318025279E-06,0
1625837414.26152,0,0,5.57,4.06,0.505715548992157,3.38431127602234E-05,3.10975623130798,-0.25830078125,0.21435546875,0.216185853207023,0.018330337800258,7.08896952925238E-05,0.009457367138039,0.461854314430495,0.462327067760476,0,0,8.40169085285495,8.40170558610486,0.01030433302446,0.010304584203078,0,0.000106559336003,7.08896952925238E-05,0
1625837414.34264,0,0,5.58,3.92,0.129370659589767,-5.70401766708528E-07,0.914634168148041,-0.06640625,0.00927734375,0.228003283554802,0.013593692527795,0.000105113623306,0.012726475394741,0.463207876513999,0.464786146751617,0,0,8.40326126539137,8.40327696831804,0.010347028477307,0.010347552396142,0,8.93498085487994E-05,0.000105113623306,0
1625837414.38064,0,0,5.56,3.86,3.10758601074212E-08,-2.89077775050828E-07,0.914634168148041,-0.02587890625,0.0107421875,0.156557465111528,0.007023465900409,0.000109722559615,0.009287837509216,0.463736904121178,0.465503639282181,0,0,8.40460721370497,8.40462403951436,0.010094174353936,0.010094875770373,0,8.7155946978855E-05,0.000109722559615,0
1625837414.44664,0,0,5.55,3.81,0.005161052569747,0.28021714091301,1.34146344661713,0.00146484375,0.0185546875,0.090181642704972,0.084864423630956,0.00011421232531,0.045735478514005,0.465792054109149,0.468158897399158,0,1,8.4058031439045,8.4058208700031,0.009872120627866,0.009872843535999,0,0.000108734573808,0.00011421232531,0
1625837414.50064,0,0,5.53,3.79,0.006521156989038,0.912118017673492,-44.5121955871582,0.01904296875,-0.09130859375,0.049465367460031,0.236472578992465,0.000110184389771,0.186913357932004,0.55036882441893,0.498414506216565,0,1,8.40660795079147,8.40662604078991,0.009262802409062,0.009263424123842,0,-2.68639938803151E-06,0.000110184389771,0
1625837414.63464,0,0,5.5,3.75,0.002150013344362,0.016498828306794,-52.6219520568848,-0.029296875,0.04638671875,0.012166349491543,0.183635060068711,-0.000403238869814,0.22905855493306,0.981116367151997,0.873325159135154,0,0,8.40994942800022,8.40996780221932,0.00960573773613,0.009606022230907,0,-0.00067441942431,-0.000403238869814,0
1625837414.68064,0,0,5.5,3.77,2.21867622940408E-07,-2.06388494916609E-06,1.15853655338287,-0.01416015625,0.0126953125,0.004967215292529,0.109508397640072,-0.000576841827591,0.179685271960156,1.06390849750869,1.0302453278363,0,0,8.41151991915894,8.41153826852296,0.010355563987277,0.010355741966555,0,-0.000585262686995,-0.000576841827591,0
1625837414.74064,0,0,5.5,3.78,2.19161933046053E-07,-2.03871559278923E-06,1.28048777580261,-0.0078125,0.0087890625,0.002737470671988,0.01017333536609,-0.000579665658006,0.029916431464138,1.06007614499623,1.05292411203512,0,0,8.41237355514141,8.41239189543896,0.010182251931488,0.010182357122774,0,-0.000462935809912,-0.000579665658006,0
1625837414.80064,0,0,5.5,3.8,2.19161933046053E-07,-2.03871559278923E-06,1.21951222419739,-0.00537109375,0.0009765625,0.019694849939184,0.004134753865572,-0.000505367285786,0.007484078800024,1.05968709436409,1.05765510056004,0.5,0,8.41312053769599,8.41313887508889,0.009898482726211,0.009898541948447,0,-0.000359542769303,-0.000505367285786,0
1625837414.84264,0,0,5.52,3.79,0.311472505331039,0.016449492424727,1.21951222419739,-0.19287109375,-0.19873046875,0.105860913267486,-0.006891507683158,-0.000418281015252,-0.006274546598967,1.0482062050146,1.05597340065441,0.5,0,8.41390146289976,8.4139197970064,0.009849487207136,0.009849524476845,0,-0.00032458701761,-0.000418281015252,0
1625837414.86064,0,0,5.4,3.78,0.532781004905701,0.033000160008669,-0.853658556938171,-0.099609375,-0.01513671875,0.14374755038381,0.015084685083211,-0.000343531191793,0.010062984456367,1.05332327936317,1.05515794061877,0.5,0,8.41464843566977,8.41466674563503,0.009230150526522,0.009230216647021,0,-0.000199593814419,-0.000343531191793,0
1625837414.94664,0,0,5.37,3.75,0.505716264247894,2.78416678156645E-06,-1.15853655338287,-0.14501953125,-0.1875,0.193683784805434,0.013167474688498,-0.000170222844653,0.01827390785712,1.0587663207361,1.05961627474629,0.5,0,8.41571052041687,8.41572868560098,0.009605424224687,0.00960558956064,0,-1.15753923260542E-05,-0.000170222844653,0
1625837414.98064,0,0,5.31,3.71,0.503943920135498,-0.016484508290887,2.62195134162903,-0.041015625,-0.41796875,0.229707155695092,0.016571936684894,-9.73227149315567E-05,0.01366053004686,1.06000710380563,1.06115080937905,0,0,8.41641060096948,8.41642854850624,0.009913470264912,0.009913734189964,0,4.65925622760784E-06,-9.73227149315567E-05,0
1625837415.05064,0,0,5.19,3.62,0.256965517997742,-0.016520038247109,1.76829266548157,0.10791015625,0.2763671875,0.240057152441602,0.014476989551904,-1.5700990600279E-05,0.014218381760914,1.05978842415289,1.06263558861239,0,0,8.41798734059669,8.41800444848466,0.009929889802765,0.009930415346088,0,-2.76608812720238E-06,-1.5700990600279E-05,0
1625837415.10064,0,0,5.13,3.58,1.82771238144142E-08,-1.7001976004849E-07,2.5,0.01220703125,0.06201171875,0.181020129788734,0.003809689776361,1.94663666324545E-05,0.006401487534454,1.06070539215849,1.06272024034609,0,0,8.4194920904195,8.41950809231679,0.010050912904337,0.010051645714658,0,2.55655474803308E-05,1.94663666324545E-05,0
1625837415.13464,0,0,5.08,3.55,1.82771238144142E-08,-1.7001976004849E-07,1.34146344661713,-0.0126953125,0.01708984375,0.107778137777557,0.004183478429717,4.99364295267605E-05,0.004583272339817,1.06033853410633,1.06174221454281,0,-1,8.42065493309034,8.42067013206851,0.009270196350223,0.009270971099715,0,5.23709525196454E-05,4.99364295267605E-05,0
1625837415.16064,0,0,5.05,3.54,0.011169228702784,-0.807858407497406,44.8780479431152,-0.04150390625,0.0185546875,0.053325314193285,-0.230187201412492,6.87736968018404E-05,-0.145830316139113,1.0077882919848,1.03695459619721,0,-1,8.42200711326753,8.42202162131833,0.009910034944862,0.009910716476167,0,6.92885067320806E-05,6.87736968018404E-05,0
1625837415.23864,0,0,5.04,3.57,0.008752561174333,-0.939722836017608,53.9634170532227,-0.00390625,0.0244140625,0.031724729938904,-0.188090460814751,0.000135745605832,-0.20624704699891,0.816044628611523,0.913910703886599,0,-1,8.42348500564466,8.42349933060167,0.010329731209658,0.010330229606457,0,0.000212680781672,0.000135745605832,0
1625837415.28064,0,0,5.08,3.56,0.007053833920509,-0.96797913312912,55.4268302917481,0.1103515625,-0.03466796875,0.018823081973154,-0.177947533965938,0.000205014622421,-0.219038336174798,0.543402003364502,0.730088520819338,0,-1,8.42477197948553,8.42478631207794,0.010167704644132,0.010168036751784,0,0.000229878951275,0.000205014622421,0
1625837415.34264,0,0,5.1,3.59,0.006976696662605,-0.956242501735687,58.7804908752441,-0.00634765625,0.00244140625,0.012482663123542,-0.184088758532088,0.000230658746217,-0.238370753721491,0.308481619334997,0.50731915502041,0,-1,8.4260974512009,8.42611181562605,0.009997690845493,0.009997900119231,0,0.00019825199345,0.000230658746217,0
1625837415.40064,0,0,5.04,3.62,3.34099574672564E-08,3.10790312596509E-07,0.670731723308563,0.0048828125,0.01123046875,0.009030691303342,-0.140118794211787,0.000191327654799,-0.239647278743763,0.182010929259094,0.28162210193029,0,-1,8.42766220333509,8.4276765918365,0.010077175892919,0.010077303025771,0,8.36705775275652E-05,0.000191327654799,0
1625837415.44664,0,0,5.15,3.61,1.48559342605381E-08,1.38194735654906E-07,1.21951222419739,-0.01416015625,0.02001953125,0.005349808422094,-0.012515799410146,0.000138189535638,-0.093381887272023,0.183909808354677,0.198905033516227,0,-1,8.42877812630271,8.42879252415935,0.0092830641918,0.009283136316147,0,7.09400767413845E-05,0.000138189535638,0
1625837415.46064,0,0,5.18,3.62,1.46747654028445E-08,1.36509441972521E-07,1.28048777580261,-0.01416015625,0.0166015625,0.003060261207829,-0.002346285117574,0.00010506942717,-0.012071336318959,0.184655473104409,0.187194590912401,0,-1,8.4297556659614,8.42977006983078,0.009878503537201,0.009878544009203,0,5.92391073893604E-05,0.00010506942717,0
1625837415.52064,0,0,5.24,3.6,1.46747654028445E-08,1.36509441972521E-07,1.28048777580261,-0.01220703125,0.01318359375,0.001684197447552,0.001090001584473,7.72174962466592E-05,-0.000188390875059,0.184883669693446,0.185692870532502,0,-1,8.43066828051996,8.43068268755152,0.009650407746213,0.009650426578806,0,5.09059517432623E-05,7.72174962466592E-05,0
1625837415.58064,0,0,5.25,3.6,1.48559342605381E-08,1.38194735654906E-07,1.28048777580261,-0.0009765625,0.0166015625,0.000847107675379,0.001444070755554,6.07415722610851E-05,0.001203438212147,0.184894620257676,0.185657897455943,0,-1,8.43161443086163,8.43162884092967,0.010361872837763,0.010361882747664,0,4.07150461401762E-05,6.07415722610851E-05,0
1625837415.64064,0,0,5.16,3.6,1.46747654028445E-08,1.36509441972521E-07,1.28048777580261,-0.005859375,0.00927734375,0.000477546435243,0.001817001088585,5.06943654455389E-05,0.001546638152301,0.184911879468597,0.185747415236294,0,-1,8.43213038320812,8.43214479525304,0.009995229752109,0.009995235809799,0,3.41329425849684E-05,5.06943654455389E-05,0
1625837415.70064,0,0,5.18,3.62,1.46747654028445E-08,1.36509441972521E-07,1.28048777580261,-0.0146484375,0.0068359375,0.000269765701941,0.001655908396463,3.82927667390626E-05,0.001643834981869,0.184908150312631,0.18592577524269,0,-1,8.43310184759749,8.43311626306724,0.009913407862018,0.009913411354152,0,2.84150731852716E-05,3.82927667390626E-05,0
1625837415.73864,0,0,5.16,3.61,1.46747654028445E-08,1.36509441972521E-07,1.15853655338287,-0.01708984375,0.009765625,0.000151559024209,0.001537567326665,3.17887294858509E-05,0.001615265486616,0.184912616061949,0.185973290895216,0,-1,8.4336261026581,8.43364052012366,0.009274852107403,0.00927485496866,0,2.35283095265139E-05,3.17887294858509E-05,0
1625837415.76064,0,0,5.12,3.63,0.006727579049766,-0.08135699480772,4.14634132385254,-0.03076171875,-0.01806640625,8.61997430919974E-05,-0.072727002573836,2.46762492190624E-05,-0.031666681626889,0.182957394169505,0.182987486785871,0,-1,8.43457191363915,8.4345863334032,0.009870871159866,0.009870874117715,0,1.92198691937594E-05,2.46762492190624E-05,0
1625837415.84264,0,0,5.06,3.6,0.011683853343129,-0.851238906383514,51.7073173522949,0.03515625,0.185546875,0.001830507234543,-0.217775894137667,1.17588445577593E-06,-0.193142486355656,0.095676578063123,0.134305536194298,0,0,8.43565033199746,8.43566475372134,0.009645670155606,0.009645673295852,0,-3.37831664994418E-05,1.17588445577593E-06,0
1625837415.88064,0,0,5.14,3.61,3.32536775893288E-09,3.09336556369999E-08,1.5853658914566,0.01513671875,-0.01171875,0.002366637020416,-0.151523262822814,-5.45448826529589E-05,-0.194709984013373,-0.05889361730206,0.001080417672,0,0,8.43716369723226,8.43717811955117,0.010360769388483,0.010360772819167,0,-7.04596143253352E-05,-5.45448826529589E-05,0
1625837415.94664,0,0,5.15,3.61,3.32536775893288E-09,3.09336556369999E-08,1.15853655338287,-0.00830078125,0.00048828125,0.001625952668541,-0.095221872835403,-6.27217036959725E-05,-0.154969967784753,-0.060211037853669,-0.037988819217888,0,0,8.43766576571681,8.43768018834638,0.009760033645395,0.00976003699071,0,-5.76268424637632E-05,-6.27217036959725E-05,0
1625837416.00064,0,0,5.15,3.61,3.70310959674214E-09,3.44475310498638E-08,1.34146344661713,-0.00244140625,0.00244140625,0.000877535683858,-0.008955416688939,-6.29957628538251E-05,-0.026408799463511,-0.056279560417981,-0.059733832549589,0,0,8.43887622224663,8.43889064527846,0.010068790877182,0.010068794289001,0,-4.70025461940051E-05,-6.29957628538251E-05,0
1625837416.03064,0,0,5.17,3.63,3.7482696946256E-09,3.48676252315272E-08,1.28048777580261,-0.00439453125,0.01220703125,0.000499951208776,-0.001792194537704,-5.46306733065221E-05,-0.004637132513546,-0.055577565566401,-0.059591190799974,0,0,8.43953956860321,8.4395539922602,0.009273635224453,0.009273638358089,0,-3.72634991261231E-05,-5.46306733065221E-05,0
1625837416.06064,0,0,5.08,3.61,3.7482696946256E-09,3.48676252315272E-08,1.34146344661713,-0.00634765625,0.00341796875,0.00027827591548,0.000908081025549,-4.72811204322714E-05,-1.50668141203021E-05,-0.055408376693532,-0.058656351417815,0,0,8.44041813526165,8.44043255920298,0.010371871248647,0.010371874320136,0,-2.91849512840962E-05,-4.72811204322714E-05,0
1625837416.13464,0,0,5.12,3.6,0.007296828553081,0.296735405921936,1.40243899822235,-0.009765625,0.0107421875,0.000138253748423,0.092754589062044,-3.55995291857708E-05,0.045432710844748,-0.05270199597658,-0.053217440023564,0,1,8.44137807559449,8.44139250014067,0.010408807378608,0.010408810065431,0,-2.08046876399652E-05,-3.55995291857708E-05,0
1625837416.18064,0,0,5.15,3.59,0.000853964942507,0.247285157442093,-7.74390268325806,0.0361328125,0.0556640625,-0.000805011976833,0.11024239276611,-3.15616554369397E-05,0.106947280715049,0.034207382806807,-0.030366931827937,0,0,8.44196610039552,8.44198052535632,0.009958551549249,0.009958553920885,0,-4.16003338001345E-05,-3.15616554369397E-05,0
1625837416.24064,0,0,5.05,3.61,1.01524797457841E-08,9.4441674036716E-08,1.03658533096313,-0.01904296875,0.0146484375,-0.000559956748416,0.035113703698784,-3.5039816113085E-05,0.06769498607678,0.080007628456027,0.033658704409165,0,0,8.44308489357981,8.44309931912225,0.009997228902486,0.009997230863299,0,-2.50795902939134E-05,-3.5039816113085E-05,0
1625837416.30064,0,0,5.01,3.61,1.02778194843722E-08,9.56076178226795E-08,4.63414621353149,0,0.04931640625,-0.000311320511043,-0.030348887561424,-2.91186152028462E-05,0.024559519323892,0.079552389316501,0.052619809796224,0,-1,8.44363484489064,8.4436492708171,0.009262311756437,0.00926231343478,0,-1.79942522892517E-05,-2.91186152028462E-05,0
1625837416.34264,0,0,4.98,3.61,0.000593507080339,-0.395703822374344,39.5731735229492,0.01904296875,0.1611328125,0.001007659691392,-0.174776773865887,-2.78094044746591E-05,-0.143265461271724,0.020259666468342,0.034306416512021,0,0,8.44464964453763,8.44466407085603,0.009296974579006,0.009296975911762,0,-4.20166000880621E-05,-2.78094044746591E-05,0
1625837416.36064,0,0,5.01,3.59,1.2121773806939E-08,-1.12760687898117E-07,0.97560977935791,0.0078125,0.02001953125,0.001814410619323,-0.12444762255764,-5.12997139103638E-05,-0.150267011729775,-0.069600147083918,-0.034666065956825,0,0,8.44577012905233,8.44578455550344,0.009310649997123,0.009310651089504,0,-6.11326357511324E-05,-5.12997139103638E-05,0
1625837416.44664,0,0,5.1,3.61,0.001797536038794,0.016721265390515,1.34146344661713,-0.01611328125,0.0029296875,0.024523722922524,-0.023101360775348,-5.16975213752419E-05,-0.047211046681465,-0.067886896216249,-0.066118275542584,0.5,0,8.44696316168119,8.44697758811763,0.010411215833559,0.010411216753428,0,-4.23344381250445E-05,-5.16975213752419E-05,0
1625837416.48064,0,0,5.08,3.6,0.325758188962936,-0.032966751605272,5.42682933807373,0.04541015625,-0.2705078125,0.108824862588766,0.006864466390432,-3.23917599125548E-05,-0.00198476780906,-0.054965386078702,-0.065872825987343,0.5,0,8.44771704722035,8.44773147924552,0.010185644365844,0.010185651667024,0,3.12346587451013E-05,-3.23917599125548E-05,0
1625837416.54064,0,0,5.12,3.57,0.549858033657074,-0.01672144792974,3.41463422775269,0.04248046875,0.06396484375,0.146781795200432,-0.003657024464633,-4.790514114518E-06,-0.001016252821363,-0.061371847755288,-0.06279093455563,0.5,0,8.44851312081558,8.44852763439519,0.009994486192884,0.009994540032608,0,-8.36379306990344E-05,-4.790514114518E-06,0
1625837416.60064,0,0,5.12,3.47,0.504399240016937,-0.033339209854603,-1.21951222419739,0.375,0.06787109375,0.201962448788567,-0.002009128339284,-0.000138060425318,-0.003961386974019,-0.065073820048666,-0.064415355031637,0.5,0,8.44943048712344,8.44944532329865,0.009668767692886,0.009668917303515,0,-0.000266906184315,-0.000138060425318,0
1625837416.63464,0,0,5.08,3.35,0.496101170778275,-0.016517549753189,0.060975611209869,-0.2177734375,0.21728515625,0.230282775907293,-0.003809064568187,-0.000198520359301,-0.00186848262719,-0.065085481739709,-0.064807899541194,0,0,8.45053875210695,8.45055440385847,0.009296333300325,0.009296655864525,0,-0.000223524038427,-0.000198520359301,0
1625837416.66064,0,0,5.12,3.23,0.131343692541122,-0.033339235931635,1.28048777580261,0.037109375,0.15771484375,0.237677848697304,0.000433831489613,-0.000208150314076,-0.002423615868611,-0.065538441728017,-0.065916466159609,0,0,8.45194272365997,8.45195996671075,0.009284107924559,0.009284661157975,0,-0.000186397284331,-0.000208150314076,0
1625837416.73864,0,0,5.15,3.19,9.94658044817243E-09,9.25263279327737E-08,0.731707334518433,-0.00048828125,-0.033203125,0.180794579062861,0.001232627930129,-0.000193403248279,0.000993400570457,-0.065425995631561,-0.065622771970326,0,0,8.45338054539412,8.45339974922099,0.010236718089102,0.010237460096412,0,-0.000144660307604,-0.000193403248279,0
1625837416.78064,0,0,5.18,3.17,0.003319501178339,0.11684288829565,1.15853655338287,-0.00146484375,0.01025390625,0.105703101231057,0.047193261083623,-0.00016024186646,0.018637319557042,-0.064258217241866,-0.064110309816202,0,1,8.45468250782926,8.45470351322904,0.009941691410809,0.00994248694241,0,-0.00010302424864,-0.00016024186646,0
1625837416.84264,0,0,5.18,3.15,0.00660035200417,0.923206806182861,-46.9512214660645,-0.03125,-0.04931640625,0.05106431891628,0.212194130794794,-0.00013088957784,0.17457796400642,0.006884711099676,-0.021746422215851,0,1,8.45630936448579,8.45633200145488,0.010818170930336,0.010818872034518,0,-0.000151333588719,-0.00013088957784,0
1625837416.90854,0,0,5.2,3.14,0.01406467333436,0.89030784368515,-51.8902435302734,0.0029296875,0.0244140625,0.022785360598772,0.177550651385625,-0.000280422613452,0.199347957719514,0.26637374479084,0.112124780280722,0,1,8.45758991461989,8.45761292263361,0.009928821422168,0.009929302041559,0,-0.000604100801216,-0.000280422613452,0
1625837416.95454,0.001487491187497,-2.05849881309627E-24,5.17,3.12,0.004828512202948,0.939689040184021,-53.5975608825684,0.01904296875,-0.06787109375,0.009715576503401,0.169983610675757,-0.000576887301596,0.211445330025936,0.485840756606148,0.306479278957312,0,1,8.4588634428137,8.4588865868664,0.009357697195833,0.009358003617424,0,-0.000878035521041,-0.000576887301596,0
1625837416.96854,0.003053521783533,5.71318354120358E-10,5.1,3.1,0.010895540006459,0.956174194812775,-49.0853652954102,-0.025390625,-0.01806640625,0.003589314822142,0.177992196224101,-0.000782466532579,0.235474811948563,0.70981445588339,0.537614334095717,0,1,8.46028914963682,8.46031233120593,0.009329566670367,0.009329753548537,0,-0.000898760178677,-0.000782466532579,0
1625837417.03854,0.006508769110389,2.19395451668417E-08,5.05,3.08,6.05826926403097E-08,-5.63559922284185E-07,1.21951222419739,-0.025390625,0.01513671875,0.000642280716894,0.207491261942524,-0.000877566721988,0.252872244781364,0.822952199852234,0.76126222932139,0,1,8.46211524574852,8.4621384304804,0.010424047132749,0.0104241580591,0,-0.00080021664793,-0.000877566721988,0
1625837417.08854,0.010863515681652,-2.27560274035177E-07,5.02,3.07,0.0057986471802,0.164902165532112,1.34146344661713,-0.0087890625,0.01953125,0.00016978997757,0.274550430046782,-0.000814602944136,0.220622728449694,0.825790499441424,0.830770858347577,0,1,8.46345658116799,8.46347976201804,0.010235804391359,0.010235866170613,0,-0.000583173224521,-0.000814602944136,0
1625837417.14854,0.016461743589255,-8.54089446857224E-07,5,3.04,0.010761329904199,0.944755733013153,-52.560977935791,-0.03271484375,0.03125,-0.001634828759393,0.277856429371175,-0.000693547720518,0.275362092240245,0.980559280566603,0.898424495845575,0,1,8.46492656239633,8.46494974178429,0.010011960645343,0.010011993149334,0,-0.000525289687206,-0.000693547720518,0
1625837417.20854,0.021289104903857,-2.92061379412342E-06,5.02,3.07,0.010524555109441,0.923239171504974,-53.5365867614746,-0.00146484375,-0.0302734375,-0.003207396797121,0.255386046945614,-0.000620111850416,0.292038769224882,1.20155173964467,1.06844689578991,0,1,8.46660687606303,8.46663005380538,0.009744071299831,0.009744087357557,0,-0.000551878443116,-0.000620111850416,0
1625837417.24654,0.024682271547997,-4.52472403066211E-06,5.07,3.05,0.006146216765046,0.879546582698822,-57.5,-0.00390625,0.11181640625,-0.004471088982159,0.248385108759025,-0.000611597616574,0.299973322711715,1.43274529511023,1.28792554192091,0,0,8.4683899313574,8.46841310616428,0.009322921557128,0.009322928942488,0,-0.000596804922303,-0.000611597616574,0
1625837417.26854,0.02828002646423,-9.04951244308513E-06,5.06,2.99,5.31023971461764E-08,4.93975790050172E-07,2.25609755516052,0.00244140625,0.0068359375,-0.003180839911643,0.166378609532299,-0.000568866093209,0.27011289840968,1.4952528700354,1.46993120730731,0,0,8.47033714846128,8.47036031845889,0.009325017547861,0.009325021027486,0,-0.000448913207448,-0.000568866093209,0
1625837417.35054,0.032355273161583,-1.53292212029343E-05,5.07,2.96,4.73400021405723E-08,-4.40372161847336E-07,1.40243899822235,-0.00732421875,0.01171875,-0.001768633369756,0.018323969516657,-0.000445005733034,0.062713209064187,1.49049534726399,1.50313292929381,0,0,8.4720471289659,8.47207029335091,0.009681487816458,0.009681489843106,0,-0.00033581262789,-0.000445005733034,0
1625837417.38854,0.037295208147097,-2.20396700256607E-05,5.08,2.95,4.73400021405723E-08,-4.40372161847336E-07,1.28048777580261,-0.0087890625,0.01806640625,-0.000876662838067,0.004941069587679,-0.000328760398942,0.010266249861899,1.48879918301783,1.49920793095553,0,0,8.47301206574192,8.4730352262705,0.010400358298394,0.01040036033382,0,-0.000222005807161,-0.000328760398942,0
1625837417.45454,0.042941699462758,-2.81240099610125E-05,5.06,2.94,3.18798427656475E-08,2.96556692092054E-07,1.21951222419739,-0.0146484375,0.01220703125,0.022879973342062,0.002098135514805,-0.000249552361146,0.003254609952812,1.48836705857601,1.49659398555892,0.5,0,8.47352511947865,8.47354827845279,0.010007803242428,0.010007805410034,0,-0.000149432390424,-0.000249552361146,0
1625837417.50854,0.049063794888034,-3.16658942243076E-05,5.04,2.95,0.362430930137634,0.016484897583723,0.731707334518433,0.2900390625,0.02294921875,0.087345168743113,-0.00527289977161,-0.000156755442693,-0.004186187004665,1.47834802481489,1.49149653772437,0.5,0,8.47448513241886,8.47450829511862,0.010042378042424,0.010042386938759,0,-0.000153610371965,-0.000156755442693,0
1625837417.53854,0.053241961954432,-3.43238918413146E-05,5.01,2.95,0.509260773658752,0.03289895132184,2.07317066192627,-0.24169921875,-0.19775390625,0.139972603601013,0.013086317048268,-7.85843959297138E-05,0.007624152319609,1.48408464980264,1.48943093476483,0.5,0,8.47530190413369,8.47532503394278,0.009882384168942,0.009882429673384,0,3.74122772991489E-05,-7.85843959297138E-05,0
1625837417.56854,0.058143516447621,-3.56380152551207E-05,4.91,2.96,0.503560543060303,0.016485918313265,1.34146344661713,-0.2958984375,0.04296875,0.197327598917603,0.017009739790464,4.58887043998162E-05,0.01656313675893,1.48655979740114,1.49064193351738,0.5,0,8.47597102357749,8.47599401416193,0.009314510282383,0.009314623991333,0,0.000135385362801,4.58887043998162E-05,0
1625837417.64254,0.063047751734507,-3.64272358069961E-05,4.82,2.98,0.472203522920608,0.016483509913087,3.04878044128418,-0.2626953125,0.01220703125,0.227093702816937,0.003735910282605,0.000143192597543,0.00478629397801,1.48779060059832,1.49038669641599,0,0,8.47726928353929,8.47729152384544,0.009108199336946,0.009108513116148,0,0.000154798839166,0.000143192597543,0
1625837417.68854,0.068016815019808,-3.73145555599543E-05,4.71,3.01,0.105362638831139,-0.016719734296203,2.92682933807373,0.03515625,0.2109375,0.220305286949856,0.011003521781435,0.000187470935868,0.008661655684354,1.48956637107705,1.4905255467008,0,0,8.47870936122801,8.47873014027825,0.010370978635923,0.010371513326133,0,0.000160861256598,0.000187470935868,0
1625837417.74854,0.072669227584294,-3.8628766812493E-05,4.62,3,2.61174566418276E-08,-2.42953092310927E-07,1.21951222419739,0.0048828125,0.02001953125,0.147191780688829,0.003180126482112,0.000205989974703,0.004831557005338,1.48934369356684,1.49067923758097,0,0,8.48004383762156,8.48006288759377,0.010038717415594,0.010039416036756,0,0.000163091810854,0.000205989974703,0
1625837417.80854,0.076854328189248,-4.05531547060508E-05,4.58,2.99,0.010320914909244,-0.383763760328293,1.46341466903687,-0.0166015625,0.04052734375,0.08457335860783,-0.064323722800118,0.00021113072686,-0.036791224893669,1.48145369342672,1.48602681651371,0,-1,8.48121672140844,8.48123443894097,0.009756907785588,0.009757605236385,0,0.000170990167536,0.00021113072686,0
1625837417.85054,0.079126445179995,-4.19537807515926E-05,4.57,3,0.008745057508349,-0.939792633056641,53.4756126403809,0.04248046875,-0.0009765625,0.049661079765796,-0.151001051971646,0.000281566906521,-0.1382535358562,1.35372068482208,1.42123945944226,0,-1,8.48228387804575,8.48230084212787,0.009317889697331,0.009318451616171,0,0.000358302726935,0.000281566906521,0
1625837417.86854,0.082070528878298,-4.41520591870124E-05,4.57,2.99,0.012288802303374,-0.906827569007874,48.2317085266113,-0.06201171875,0.03369140625,0.030237718592053,-0.141468746047565,0.000413545116067,-0.17384745762406,1.13641015586563,1.2585844188507,0,-1,8.48349571700404,8.48351233847581,0.009328955312659,0.009329354866973,0,0.00048471259811,0.000413545116067,0
1625837417.95454,0.084242513000261,-4.63978611228186E-05,4.56,2.99,0.006987877655774,-0.956138491630554,52.0731735229492,0.21337890625,-0.03125,0.01798737904824,-0.153784442976016,0.000459003625814,-0.219269649238251,0.859850878794034,1.02026832808483,0,-1,8.48503541867372,8.48505192881201,0.010419997116271,0.010420265394758,0,0.000412534827183,0.000459003625814,0
1625837417.98854,0.086740566107249,-4.76554026329807E-05,4.56,2.99,0.000628679757938,0.115382708609104,45.7926826477051,0.0009765625,-0.0390625,0.011954820207412,-0.169475925337828,0.00043068162955,-0.249798588704384,0.639327621915546,0.777542269482545,0,-1,8.48636975569991,8.4863862733379,0.010280384565075,0.010280551593485,0,0.000342712093686,0.00043068162955,0
1625837418.04854,0.088780016975295,-4.83045068108353E-05,4.62,3.04,1.25435422049236E-08,-1.16684113038446E-07,1.09756100177765,-0.0107421875,0.00244140625,0.006862107163916,-0.212427093526081,0.000392408466297,-0.216218669068655,0.606119745380093,0.652247757628079,0,-1,8.48740213410137,8.48741865957974,0.009799014152725,0.009799124060452,0,0.0002766631925,0.000392408466297,0
1625837418.10854,0.090027944664305,-4.81036715560103E-05,4.62,3.06,0.014068235643208,-0.890274703502655,33.1707305908203,0.02294921875,0.0166015625,0.004461983434093,-0.274612896769842,0.000312656124609,-0.264915084458735,0.570805841612429,0.570977333051129,0,-1,8.48912435300246,8.48914088355503,0.009761107749085,0.009761163627173,0,0.00020667883106,0.000312656124609,0
1625837418.14254,0.090112567892562,-4.79354518400024E-05,4.53,3.09,0.00697314646095,-0.956275522708893,59.2682952880859,-0.00634765625,0.04833984375,0.005483895078397,-0.230453587709474,0.000183375471961,-0.253913044216619,0.371442408194706,0.440811796142853,0,-1,8.49068326381283,8.49069979596553,0.009323688745968,0.009323718463458,0,3.35803212273507E-06,0.000183375471961,0
1625837418.16854,0.090213965809163,-4.71625948224383E-05,4.53,3.11,0.00696137920022,-0.956309676170349,59.2073173522949,-0.15380859375,0.0078125,0.005251948579163,-0.209108061316971,3.41594114862202E-05,-0.252459555664814,0.141651262942026,0.232621523290439,0,0,8.49222950027056,8.49224603373241,0.009236690646481,0.009236705897137,0,-9.53526786353571E-05,3.41594114862202E-05,0
1625837418.24654,0.088476215903297,-4.57995627268816E-05,4.57,3.09,1.68688512047765E-08,-1.569195404727E-07,-4.08536577224731,0.0224609375,0.05615234375,0.004578529607658,-0.19116557319334,-0.000101294081113,-0.257656238459643,-0.081494336288036,-0.003868532131011,0,0,8.49415238138446,8.4941689157068,0.010401764640356,0.010401772486052,0,-0.000177770780461,-0.000101294081113,0
1625837418.28854,0.085740350665249,-4.40255189706694E-05,4.58,3.07,1.66656093369966E-08,-1.55028942572244E-07,1.21951222419739,-0.00390625,0.01025390625,0.002649108260041,-0.144109827750992,-0.000153814649048,-0.188628439500162,-0.091687621188907,-0.092105839525177,0,0,8.49549843434055,8.49551496824627,0.010275802255529,0.0102758063733,0,-0.000146737176133,-0.000153814649048,0
1625837418.35054,0.081183684058761,-4.19648181341806E-05,4.61,3.09,0.196380153298378,-0.033034898340702,1.82926833629608,0.15234375,-0.123046875,0.068885344119921,-0.04273067267928,-0.000159362273256,-0.081230760578898,-0.077898942845061,-0.103920680676043,0.5,0,8.49651572502079,8.4965322588473,0.010022376742756,0.010022380251429,0,-0.000104370557892,-0.000159362273256,0
1625837418.40854,0.075111318532404,-3.9561012680532E-05,4.61,3.07,0.525358080863953,-0.048854324966669,2.86585378646851,0.1748046875,0.08056640625,0.118370014817402,-0.005619226477563,-8.29675517783459E-05,-0.009467061982125,-0.076697338297777,-0.092638958719461,0.5,0,8.49729900744651,8.4973155649071,0.009756739228579,0.009756765053875,0,4.65746932879439E-07,-8.29675517783459E-05,0
1625837418.45454,0.06946648723798,-3.76479588278486E-05,4.61,3.02,0.501788258552551,-1.33315737116391E-07,-1.21951222419739,0.0439453125,-0.37060546875,0.183222739944274,-0.01437229340795,-0.000124386924499,-0.012580899753913,-0.082762216329414,-0.089935411145892,0.5,0,8.49813351902486,8.49815023933685,0.009319688681576,0.00931978334593,0,-0.000173662790144,-0.000124386924499,0
1625837418.46854,0.063901225020778,-3.55253021646031E-05,4.62,2.96,0.49180880188942,0.016551360487938,-1.21951222419739,0.1298828125,0.361328125,0.226888642219573,-0.005708403279922,-0.000159172153492,-0.005410826941219,-0.083430559514583,-0.087733358746184,0.5,0,8.49923565677622,8.49925296265249,0.009327849926082,0.009328103050763,0,-0.000156467034339,-0.000159172153492,0
1625837418.53854,0.056855381929824,-3.2897749098262E-05,4.61,2.73,0.252665311098099,0.016551369801164,-3.90243911743164,0.2138671875,0.3017578125,0.237424741899563,0.000116892036987,-0.00016612096361,-0.001446855467667,-0.083950447201013,-0.085618220110904,0.5,0,8.50084293099189,8.50086179980522,0.010413485818531,0.010413998503553,0,-0.000133350431501,-0.00016612096361,0
1625837418.58854,0.049349747447608,-2.99978214156882E-05,4.56,2.64,1.43314418110663E-08,-1.33315737116391E-07,-0.243902444839478,-0.00244140625,0.0107421875,0.161452071038081,0.003306180023093,-0.000149360867443,0.003475047195278,-0.082754080539988,-0.083590275177536,0.5,0,8.5022258570926,8.50224653313648,0.010269680656527,0.010270396607655,0,-0.000105329889094,-0.000149360867443,0
1625837418.64854,0.043455187039228,-2.68624629839379E-05,4.57,2.58,1.45083731695195E-08,-1.34961609887796E-07,1.28048777580261,-0.00537109375,0.0029296875,0.10726786099094,0.00301090667692,-0.000132109971695,0.004068819756661,-0.08269196192761,-0.082577522720335,0.5,0,8.50316715377935,8.50318907159733,0.009729783852419,0.009730553473924,0,-8.91125928170027E-05,-0.000132109971695,0
1625837418.70854,0.039022477287974,-2.34425434903761E-05,4.54,2.56,1.45083731695195E-08,-1.34961609887796E-07,1.28048777580261,-0.00390625,0.0078125,0.060814840742744,0.001994559848145,-0.000108730227762,0.002491864138661,-0.082742116693212,-0.082277170831197,0.5,0,8.50427887478112,8.50430196284674,0.009373288303479,0.009373982093353,0,-7.31781245344952E-05,-0.000108730227762,0
1625837418.74654,0.036364289985038,-2.07513599921781E-05,4.53,2.56,1.43314418110663E-08,-1.33315737116391E-07,1.21951222419739,-0.0087890625,0.03076171875,0.034367229726138,0.001844975451583,-8.79652261282695E-05,0.001925548853233,-0.082752904420002,-0.082235175876552,0.5,0,8.50520805097449,8.50523168626702,0.009003453908762,0.009003976986943,0,-6.12087953434406E-05,-8.79652261282695E-05,0
1625837418.76854,0.034059903021526,-1.8033686428175E-05,4.53,2.56,0.144655898213387,0.016824876889587,-0.243902444839478,-0.013671875,-0.08056640625,0.090460269806183,-0.001286858017847,-7.08478562556977E-05,0.001673286697245,-0.082677142879724,-0.082070437198434,0.5,0,8.50636751448801,8.50639145016127,0.010435364870539,0.010435736446973,0,-5.1822827052968E-05,-7.08478562556977E-05,0
1625837418.85054,0.033196993588223,-1.50026085614542E-05,4.54,2.53,0.174258932471275,0.016415353864431,2.56097555160522,0.14013671875,0.2080078125,0.103163752126387,-0.003493485166817,-5.2905762214297E-05,-0.000812844315962,-0.082222268958342,-0.082012896881416,0,0,8.50716477211451,8.50718888771908,0.010257472433437,0.010257735393328,0,-3.36716751924691E-05,-5.2905762214297E-05,0
1625837418.88854,0.031820953070554,-1.2197509696456E-05,4.54,2.49,1.19396377229464E-08,-1.1106639163927E-07,1.09756100177765,0.0107421875,-0.0400390625,0.074075961974558,0.002094430013073,-4.01192913732113E-05,0.000616936304745,-0.08093772059896,-0.081865662854853,0,0,8.50798597437418,8.50801034339996,0.010058241984928,0.010058455515223,0,-3.19097487881992E-05,-4.01192913732113E-05,0
1625837418.95454,0.030057190912349,-1.06254436809724E-05,4.53,2.49,0.006556496489793,0.230699643492699,-3.29268288612366,-0.00146484375,-0.11279296875,0.042594069683123,0.11307301938941,-3.14444248123745E-05,0.035865425167785,-0.073726991708138,-0.078248145687455,0,1,8.50880535115342,8.50882996435223,0.009730460217321,0.009730644972803,0,-1.63638849182822E-05,-3.14444248123745E-05,0
1625837419.00854,0.028772572117833,-1.23307781208756E-05,4.51,2.47,0.008373863995075,0.906859636306763,-45.8536605834961,-0.09228515625,-0.00830078125,0.02256356585145,0.190345820032209,-7.11869487422886E-05,0.175324677110866,0.052281571205037,-0.015334692013847,0,1,8.51000221627423,8.51002699481939,0.009752754400495,0.009752891191642,0,-0.000184472463352,-7.11869487422886E-05,0
1625837419.03854,0.027372240911954,-1.32602845590146E-05,4.53,2.45,0.011039043776691,0.968047618865967,-50.8536605834961,0.0068359375,-0.037109375,0.01073338838259,0.174793874018057,-0.000205671090562,0.203957596023607,0.265961584621297,0.105676975209764,0,1,8.51086191454209,8.51088672715006,0.009004657914254,0.009004757682197,0,-0.00042730574553,-0.000205671090562,0
1625837419.06854,0.027191569840777,-1.6517860029534E-05,4.51,2.29,0.010519848205149,0.923207640647888,-50.6707344055176,0.0009765625,0.1357421875,0.003518213773164,0.174313785727464,-0.000417075520461,0.238759810414179,0.496643580657601,0.34816964497288,0,1,8.51261770478481,8.51264254151141,0.010441546253055,0.010441612481102,0,-0.000628246378001,-0.000417075520461,0
1625837419.14254,0.027708110054472,-2.09305088369988E-05,4.52,2.35,0.002195380628109,0.494569540023804,-36.7073173522949,0.02001953125,0.09716796875,-0.001112873065793,0.188472540927613,-0.000600285598577,0.26044925059884,0.767656702455967,0.587233563856923,0,1,8.51403128491666,8.51405612085468,0.010267597131891,0.010267637426194,0,-0.000709469727733,-0.000600285598577,0
1625837419.18854,0.029355302396472,-2.44962133732866E-05,4.53,2.43,0.007056210190058,0.445120215415955,-1.82926833629608,-0.0009765625,-0.00390625,-0.00104190374985,0.26565137542868,-0.000651639076057,0.225385303232741,0.816655111246017,0.801915881948988,0,1,8.51621667001768,8.51624150561943,0.010491227162777,0.010491246336493,0,-0.000529968122066,-0.000651639076057,0
1625837419.24854,0.031634962402474,-2.75466630888372E-05,4.53,2.43,0.011263897642493,0.989208877086639,-54.7560997009277,-0.15673828125,0.08056640625,-0.002453362569896,0.322617462487004,-0.00056934541997,0.332006119918393,1.00274109377996,0.951042979351033,0,1,8.51842668205314,8.51845151693649,0.010427307421338,0.010427317741719,0,-0.000461482047882,-0.00056934541997,0
1625837419.30854,0.034122434416101,-3.01351802995948E-05,4.56,2.41,0.007053088396788,0.967909812927246,-56.7073173522949,0.0361328125,0.07421875,-0.003957988179637,0.275632398802776,-0.000556754930946,0.31566318542575,1.23112856423552,1.15019240621197,0,1,8.52042875369322,8.5204535869586,0.010171961600871,0.010171968239161,0,-0.000530471892596,-0.000556754930946,0
1625837419.35054,0.035252352056951,-3.21257180982276E-05,4.59,2.38,0.000375681120204,-0.032966580241919,0.304878056049347,0.02099609375,0.060546875,-0.004271371636648,0.242746398133935,-0.000558296742143,0.296091240591343,1.42782856076686,1.36103634354367,0,0,8.5222707728344,8.52229560338217,0.010056805314441,0.010056810085757,0,-0.000519490655926,-0.000558296742143,0
1625837419.36854,0.037024151096958,-3.30672464582173E-05,4.62,2.36,2.23035058866117E-07,2.07474477065261E-06,1.46341466903687,-0.0087890625,0.01708984375,-0.002579665745257,0.124764697092879,-0.000505295237999,0.197398250129681,1.44227175391991,1.44646135845545,0,0,8.52380669257159,8.52383151959535,0.009754025948958,0.009754029848255,0,-0.000401460794348,-0.000505295237999,0
1625837419.44984,0.037844391713855,-3.32095506754028E-05,4.62,2.33,2.20315129695336E-07,2.04944308279664E-06,1.15853655338287,-0.009765625,0.02734375,-0.001431803599995,0.020518759134499,-0.000414500563692,0.048507387710236,1.43754777685862,1.45083672195502,0,0,8.52480845105623,8.52483327488137,0.009402372226635,0.009402375683096,0,-0.000306626111479,-0.000414500563692,0
1625837419.48384,0.038170784674942,-3.25934398355063E-05,4.62,2.32,0.254446148872375,0.03296646848321,-1.82926833629608,-0.12255859375,-0.236328125,0.064780202481606,-0.010350000192279,-0.000332485415612,0.002779638501442,1.42927786550514,1.44712226480038,0.5,0,8.52570496444441,8.52572978698617,0.010433505227664,0.010433509366187,0,-0.000230619214245,-0.000332485415612,0
1625837419.54384,0.037062992328063,-3.1119958100473E-05,4.6,2.29,0.527459502220154,0.03337599337101,2.1951220035553,-0.27099609375,-0.20849609375,0.139117144616902,0.013668343867946,-0.000265327566596,0.005981216824371,1.4284357662239,1.43825191378507,0.5,0,8.5266928953604,8.52671769591858,0.010442840368309,0.010442882016382,0,-0.000195983470162,-0.000265327566596,0
1625837419.60384,0.034348641144637,-2.8841277262049E-05,4.49,2.31,0.49358206987381,0.03289607167244,-0.182926833629608,-0.0244140625,-0.14892578125,0.195874961017879,0.016028763462149,-0.000171830757235,0.016897167051433,1.43384521401436,1.43936781118672,0.5,0,8.52742795920608,8.52745260849986,0.010568781076511,0.010568886851824,0,-2.6621130649404E-06,-0.000171830757235,0
1625837419.63784,0.031722925254137,-2.71159992248295E-05,4.37,2.33,0.508372604846954,-0.033441629260779,1.52439022064209,-0.01416015625,-0.10595703125,0.253604042349149,0.004706637006455,-4.70267239910076E-06,0.00727803121628,1.43579513420022,1.43895982573815,0.5,0,8.52863103004093,8.52865497439616,0.010049000806242,0.010049293570198,0,8.77841665642781E-05,-4.70267239910076E-06,0
1625837419.66384,0.028443091147269,-2.4854164893142E-05,4.27,2.37,0.511031270027161,0.049520183354616,-4.87804889678955,0.0390625,0.30419921875,0.351527042249604,0.016441801118243,8.1014729137213E-05,0.01463548932936,1.43609921221093,1.43875755196019,0.5,0,8.5300459118776,8.53006823663926,0.009576817451811,0.00957740432315,0,9.16370176897188E-05,8.1014729137213E-05,0
1625837419.74184,0.023525790133561,-2.20049603785908E-05,4.17,2.3,0.486108511686325,0.000137341572554,-0.182926833629608,-0.17431640625,-0.052734375,0.391989805889572,0.01054063486521,0.000105500994124,0.011101272064798,1.43733281396585,1.43854917879887,0.5,0,8.53144444796857,8.53146458895473,0.009057970839436,0.009058969305472,0,8.741926345567E-05,0.000105500994124,0
1625837419.78384,0.018161656771819,-1.89401865045019E-05,3.98,2.36,0.509784698486328,0.016757931560278,1.15853655338287,0.07861328125,-0.0966796875,0.410192542605056,0.008986357342306,0.000108354127219,0.009223376488981,1.436280790277,1.4373978020664,0.5,0,8.53435142716423,8.53436610680808,0.008943004150396,0.008944760824398,0,5.52059869300018E-05,0.000108354127219,0
1625837419.84584,0.01214118302716,-1.5617609721822E-05,3.74,2.43,0.503944635391235,-0.016552809625864,4.14634132385254,-0.15283203125,0.009765625,0.453198666020323,0.004442792536981,0.000102853175956,0.007026896583821,1.43718400179037,1.43787977445149,0.5,0,8.53813430103423,8.53814081251928,0.010437882049683,0.010440456757713,0,5.72937987624806E-05,0.000102853175956,0
1625837419.90384,0.005864509076697,-1.21770688358342E-05,3.65,2.44,0.511408627033234,0.016418082639575,-0.243902444839478,-0.45361328125,0.06298828125,0.417383398252561,0.020543336684507,9.97526894379369E-05,0.017938156050085,1.43659173504331,1.43806632333731,0.5,0,8.54145033344682,8.5414489828935,0.010169239047933,0.010172396692619,0,5.070196749068E-05,9.97526894379369E-05,0
1625837419.92984,0.000924618738819,-9.56311364392914E-06,3.57,2.42,0.507486820220947,0.016548546031118,1.28048777580261,-0.3017578125,-0.18896484375,0.353594324387153,0.010910887335699,8.95113257629407E-05,0.015689394631022,1.43724432279864,1.43857567892634,0.5,0,8.54385582650571,8.5438491025647,0.009759947435414,0.009763308651629,0,4.65554326970445E-05,8.95113257629407E-05,0
1625837419.96384,-0.003955003975548,-6.79036945902804E-06,3.47,2.42,0.511399626731873,0.016485262662172,-2.62195134162903,-0.4365234375,-0.17138671875,0.311963560031044,0.008073642092972,7.65193423296263E-05,0.01070971148114,1.436873073472,1.43869102308396,0.5,0,8.54733894636524,8.54732349093639,0.010440754119119,0.010444223811518,0,3.16088051167072E-05,7.65193423296263E-05,0
1625837420.03384,-0.009220154131202,-3.54657492748812E-06,3.29,2.41,0.421608626842499,-0.016480959951878,0,-0.25146484375,0.0576171875,0.296319717593352,0.005360078357186,4.71669305398412E-05,0.0049030494061,1.43724344493099,1.43759628022852,0.5,0,8.54937108940747,8.54935142615489,0.009048419906074,0.009051415142135,0,9.61573687796092E-06,4.71669305398412E-05,0
1625837420.08384,-0.014335659929108,2.93735545504725E-07,3.21,2.45,0.044896114617586,0.01641345769167,1.09756100177765,0.029296875,0.15185546875,0.250674024245503,0.013037876460986,3.86458847671491E-05,0.012087420559537,1.43780097079877,1.43870728039182,0.5,0,8.55211001103453,8.55208454536891,0.010356303137826,0.010359043164358,0,2.31130968589128E-05,3.86458847671491E-05,0
1625837420.14384,-0.019380082215771,2.16285825922836E-06,3.14,2.46,9.54008427811459E-08,-8.87449743913749E-07,1.46341466903687,-0.01171875,0.01611328125,0.139448872083281,0.005108609311521,4.39460280226675E-05,0.008437170920368,1.43795002518898,1.43938867391941,0.5,0,8.55382102031677,8.55379269331343,0.010269124605526,0.010271401651933,0,4.91348687261346E-05,4.39460280226675E-05,0
1625837420.20384,-0.024186600338327,1.19071299041436E-06,3.13,2.44,0.164663940668106,-6.84719998389482E-05,1.15853655338287,-0.00146484375,0.00390625,0.164059822069708,0.002372313078811,5.62290553893817E-05,0.003356897406332,1.43763454729286,1.43909282403292,0.5,0,8.55519165696467,8.55516128095804,0.010339527474904,0.01034130081572,0,5.8323292684756E-05,5.62290553893817E-05,0
1625837420.24184,-0.027946181105087,6.68400221031987E-07,3.11,2.48,0.528873085975647,0.033032692968845,-1.46341466903687,-0.47900390625,-0.06103515625,0.166551067710762,0.006658169882951,6.08007997963868E-05,0.004749772071753,1.43624664637727,1.43834726057297,0.5,0,8.55617553233844,8.55614419061102,0.00970453266015,0.009705825953274,0,3.18706019206761E-05,6.08007997963868E-05,0
1625837420.26384,-0.03131206032976,-2.77063097767436E-06,3.04,2.49,0.495749741792679,6.62037127767689E-05,-0.060975611209869,-0.0625,-0.10009765625,0.209076133709368,0.007436851332507,4.43810048285877E-05,0.006626154183759,1.43817140053831,1.43872897937008,0.5,0,8.55754398565079,8.55751121604361,0.010498724595611,0.010499756246187,0,2.6038383895417E-05,4.43810048285877E-05,0
1625837420.34584,-0.034666883229109,-8.49857149990886E-06,2.94,2.47,0.511431634426117,0.016481367871165,6.21951246261597,0.08935546875,-0.1748046875,0.324156303731921,0.01126692977182,2.70157994925611E-05,0.010806213698053,1.43759074929949,1.43941239287872,0.5,0,8.55845088375173,8.55841719707062,0.00906208650706,0.009062956012553,0,-1.10405403122837E-05,2.70157994925611E-05,0
1625837420.38384,-0.037610327834351,-1.61166040421136E-05,2.83,2.45,0.501802861690521,0.000135519148898,2.31707310676575,-0.3212890625,0.134765625,0.395588475722927,-0.004081522740908,3.01203229775636E-06,0.003555906639583,1.4388205631058,1.44002602391509,0.5,0,8.56048978040895,8.56045314254172,0.010360197825287,0.010361390453073,0,-1.9943519970183E-05,3.01203229775636E-06,0
1625837420.44384,-0.040268660590916,-2.6943076036013E-05,2.68,2.46,0.513545453548431,0.000135315262014,8.35365867614746,0.10205078125,-0.35546875,0.445293420937404,0.005397680808,-1.0506573581252E-05,0.002625479237544,1.43764711642516,1.43875764616541,0.5,0,8.56265575676398,8.56261528482939,0.010270631298454,0.010272368272748,0,-2.5003925298471E-05,-1.0506573581252E-05,0
1625837420.50384,-0.042615592658876,-4.12715812057999E-05,2.62,2.35,0.512166678905487,-0.049452595412731,0.487804889678955,-0.044921875,-0.08935546875,0.468197816964097,0.00292821573701,-1.43992748414413E-05,0.004681966014233,1.43873520873925,1.43914544620946,0.5,0,8.56565366561349,8.56560664064084,0.010563862306109,0.010566351203506,0,-2.23527095764276E-07,-1.43992748414413E-05,0
1625837420.53384,-0.04435121415726,-5.25533515382075E-05,2.54,2.35,0.51952314376831,0.033372689038515,-1.15853655338287,0.75341796875,-0.39794921875,0.403861604108721,0.01108730351572,8.12138986751886E-07,0.010027834443736,1.43842403972026,1.43939331727165,0.5,0,8.56853677932674,8.56848353759354,0.009758529117825,0.009761633927812,0,9.54069076617535E-06,8.12138986751886E-07,0
1625837420.56384,-0.045876858736233,-6.38199203659311E-05,2.41,2.27,0.435518056154251,-0.033237151801586,-0.548780500888824,-0.03857421875,0.072265625,0.346051589981796,0.010940411131293,-1.34683149970098E-06,0.012039608951456,1.43929715929178,1.44022305588075,0,0,8.57246218829213,8.57239961083858,0.009596831760476,0.00960034843524,0,-1.16822287829776E-05,-1.34683149970098E-06,0
1625837420.63784,-0.047195418086498,-7.39106025582988E-05,2.59,1.89,0.05951987951994,1.92828724721039E-06,-0.97560977935791,-0.0068359375,0.1455078125,0.281707015312788,0.014505825419332,-6.69734597442263E-06,0.013816132539821,1.43928923762851,1.4401498471004,0,0,8.57451538899952,8.57444820210692,0.009064693984949,0.009068020718294,0,-7.20008968754485E-06,-6.69734597442263E-06,0
1625837420.68384,-0.048268240279818,-8.02183140341408E-05,2.63,1.77,3.05205333006597E-07,2.83911936094228E-06,1.09756100177765,-0.00390625,0.02294921875,0.176039475079034,0.005767906216143,9.77050828550152E-07,0.009452852226628,1.43932373285501,1.44069223113935,0,0,8.57726840826834,8.57719533669346,0.010359405545027,0.010362441505872,0,1.60522881368133E-05,9.77050828550152E-07,0
1625837420.74384,-0.049088215972866,-8.40896349179638E-05,2.6,1.75,3.05205333006597E-07,2.83911936094228E-06,1.28048777580261,-0.0107421875,0.0087890625,0.087050629877035,0.002795806395385,1.45674357923892E-05,0.004137282799786,1.43915850475916,1.44026448715435,0,0,8.57869176825218,8.57861664017006,0.010270669576577,0.010273026005087,0,2.79735906122673E-05,1.45674357923892E-05,0
1625837420.80384,-0.049651522197303,-8.51605425395872E-05,2.44,1.9,3.08973312712624E-07,2.8741703772539E-06,1.21951222419739,-0.00634765625,0.005859375,0.049245540629156,0.001510589406795,2.51513361055197E-05,0.001749185601721,1.43909317918642,1.43993109828523,0,0,8.57999283565482,8.57991645898291,0.010065267857876,0.010066799967799,0,2.78942989285414E-05,2.51513361055197E-05,0
1625837420.84584,-0.049954396917155,-8.61409713807984E-05,2.53,1.81,3.05205333006597E-07,2.83911936094228E-06,1.28048777580261,-0.00244140625,0.0029296875,0.027538833883625,0.001564077218335,2.80718102782843E-05,0.001611768521994,1.43910969600339,1.43984074040738,0,0,8.58085900704868,8.58078249331773,0.010306850762303,0.010307843132113,0,2.61609031591744E-05,2.80718102782843E-05,0
1625837420.86384,-0.050192287392469,-8.51799028565418E-05,2.47,1.82,3.05205333006597E-07,2.83911936094228E-06,1.28048777580261,-0.0107421875,0.0078125,0.015723968811154,0.001684310582172,2.81297573900566E-05,0.001625762539919,1.43909490038362,1.43989080034009,0,0,8.58156800408942,8.58149151272471,0.010480991336056,0.010481668771755,0,2.35093009411384E-05,2.81297573900566E-05,0
1625837420.92984,-0.050228396005414,-8.26181589572059E-05,2.42,1.85,3.05205333006597E-07,2.83911936094228E-06,1.21951222419739,-0.0087890625,0.0087890625,0.008617225163771,0.001425430060214,2.58297011284342E-05,0.001450818099319,1.4391312699306,1.43996689906655,0,0,8.58248348155934,8.5824071283847,0.010205650706549,0.010206006547329,0,2.1257273152109E-05,2.58297011284342E-05,0
1625837420.98384,-0.050108062382213,-7.87448217604487E-05,2.48,1.79,3.01528189083911E-07,2.8049132652086E-06,1.21951222419739,-0.009765625,0.00341796875,0.005021433025777,0.001651296420706,2.27831486874738E-05,0.001515701846013,1.4390911062629,1.43996492364695,0,0,8.58305674203831,8.58298047562536,0.008852264392621,0.008852457822516,0,1.83210775204878E-05,2.27831486874738E-05,0
1625837421.04384,-0.049817431959707,-7.38157249164387E-05,2.48,1.8,3.05205333006597E-07,2.83911936094228E-06,1.21951222419739,-0.0068359375,0.01220703125,0.00283844991842,0.001646812200072,2.05485789102481E-05,0.001513439231998,1.43909440527801,1.44008077086031,0,0,8.58392555560092,8.5838493361733,0.010253538775321,0.01025366352796,0,1.59148009027583E-05,2.05485789102481E-05,0
1625837421.10384,-0.049372183180127,-6.80726802944196E-05,2.49,1.81,3.05205333006597E-07,2.83911936094228E-06,1.28048777580261,-0.00537109375,0.0087890625,0.001575130066831,0.001595162085058,1.76315055276287E-05,0.001493955256761,1.43911859812518,1.44017857992105,0,0,8.58479029332735,8.58471410132246,0.010450419515651,0.010450489266657,0,1.38349868948565E-05,1.76315055276287E-05,0
1625837421.13784,-0.048910901041525,-6.35711522847668E-05,2.39,1.92,3.05205333006597E-07,2.83911936094228E-06,1.28048777580261,-0.013671875,0.0126953125,0.000906638513799,0.001641788394522,1.48309800291062E-05,0.001488917676491,1.43909289612374,1.44016883875345,0,0,8.58542334824507,8.58534715845985,0.009730875971441,0.009730915259222,0,1.17165803471249E-05,1.48309800291062E-05,0
1625837421.16384,-0.04846543025406,-5.86667677317297E-05,2.44,1.87,3.05205333006597E-07,2.83911936094228E-06,1.15853655338287,-0.0068359375,0.0078125,0.000438575875393,0.001776307453285,1.27413907379102E-05,0.001610679444596,1.43909966845141,1.44018461272141,0,0,8.58598776250918,8.58591156703614,0.00898738529299,0.008987412024469,0,9.49935565531933E-06,1.27413907379102E-05,0
1625837421.24184,-0.047791572224031,-5.28140445221095E-05,2.39,1.9,3.05205333006597E-07,2.83911936094228E-06,1.28048777580261,-0.00732421875,0.00927734375,0.00024032868722,0.001414816191762,9.69007289973547E-06,0.00141666404875,1.43912953639859,1.44035139913525,0,0,8.58753105551205,8.58745485433699,0.010695136399204,0.010695158095344,0,8.09193412838869E-06,9.69007289973547E-06,0
1625837421.28384,-0.047095308641865,-4.67335074672939E-05,2.39,1.9,3.01528189083911E-07,2.8049132652086E-06,1.28048777580261,-0.0009765625,0.00146484375,0.000140040398016,0.001618396066558,7.83892308767039E-06,0.001488439727016,1.43909106035721,1.44026984745214,0,0,8.58809741697169,8.58802119933728,0.008956539133552,0.008956557516263,0,6.66574501204403E-06,7.83892308767039E-06,0
1625837421.34584,-0.046283238074147,-4.02742936931773E-05,2.47,1.85,3.05205333006597E-07,2.83911936094228E-06,1.21951222419739,-0.005859375,0.00048828125,6.8639751014361E-05,0.001616625506218,6.04894985781395E-06,0.001490678420129,1.43909307009979,1.44033785012609,0,0,8.58919925688016,8.58912303212127,0.010438296227396,0.010438315739029,0,5.25814444285367E-06,6.04894985781395E-06,0
1625837421.40384,-0.045403066778632,-3.38604253397991E-05,2.46,1.88,3.05205333006597E-07,2.83911936094228E-06,1.28048777580261,-0.001953125,0.01123046875,3.8798819859241E-05,0.00167869926145,4.76281410003923E-06,0.001575607853845,1.43909531254531,1.44038130747568,0,0,8.58994777650702,8.5898715424195,0.010088027069087,0.010088046443268,0,4.30720178992644E-06,4.76281410003923E-06,0
1625837421.42984,-0.044649422912272,-2.89308777846801E-05,2.38,1.92,3.01528189083911E-07,2.8049132652086E-06,1.28048777580261,-0.005859375,0.0009765625,2.16960834767617E-05,0.00148337587573,3.6290565060104E-06,0.001473986349982,1.43910430015358,1.44040118381224,0,0,8.59074937435709,8.59067313422733,0.010313853747902,0.010313872594191,0,3.50508750476132E-06,3.6290565060104E-06,0
1625837421.46384,-0.04393772505094,-2.48407622536501E-05,2.43,1.89,3.05205333006597E-07,2.83911936094228E-06,1.34146344661713,-0.00439453125,0.015625,1.23877599534405E-05,0.001680500354474,2.77913500743318E-06,0.001586533170274,1.43909521962603,1.44039857915609,0,0,8.59143902282099,8.59136277657047,0.009578251569763,0.009578269282944,0,2.80370679164375E-06,2.77913500743318E-06,0
1625837421.53384,-0.043097384521802,-2.23515955344146E-05,2.35,1.93,3.08973312712624E-07,2.8741703772539E-06,1.34146344661713,0.0009765625,0.00439453125,6.07100155373234E-06,0.001637623610408,1.94992059196133E-06,0.001591739233457,1.43909523462852,1.44046522922713,0,0,8.59236353740383,8.59228728761635,0.010208312366454,0.010208329221544,0,2.08934151906904E-06,1.94992059196133E-06,0
1625837421.58384,-0.042243764779547,-2.06041908312442E-05,2.3,1.91,3.05205333006597E-07,2.83911936094228E-06,1.15853655338287,-0.0068359375,0.00830078125,3.42893931060497E-06,0.00154609903832,1.4614540041741E-06,0.001512637304829,1.43908977509389,1.44039652102802,0,0,8.59293537676385,8.59285912284091,0.008853957892196,0.008853972338593,0,1.62196051308113E-06,1.4614540041741E-06,0
