time,la_x,la_y,uwb_x,uwb_y,vel_linear_x,vel_angular_z,mpu_ang_vel_z,mpu_linear_acc_x,mpu_linear_acc_y,odom_linear_x,odom_angular_z,odom_filtered_linear_x,odom_filtered_angular_z,odom_yaw,odom_filtered_yaw
1624634331.981642,-5.271913547580708e-09,-5.548915184356453e-07,0.0,0.0,5.331242846295936e-06,4.959295620210469e-05,,,,2.4570634670381003e-12,0.001184334646170366,-1.6819160711322028e-09,0.0010353038177441172,-0.11906773759597673,-0.11814852369407518
1624634331.981642,-5.271913547580708e-09,-5.548915184356453e-07,0.0,0.0,5.331242846295936e-06,4.959295620210469e-05,,,,2.4570634670381003e-12,0.001184334646170366,-1.6819160711322028e-09,0.0010353038177441172,-0.11906773759597673,-0.11814852369407518
1624634331.981642,-5.271913547580708e-09,-5.548915184356453e-07,0.0,0.0,5.331242846295936e-06,4.959295620210469e-05,,,,2.4570634670381003e-12,0.001184334646170366,-1.6819160711322028e-09,0.0010353038177441172,-0.11906773759597673,-0.11814852369407518
1624634331.981642,-5.271913547580708e-09,-5.548915184356453e-07,0.0,0.0,5.331242846295936e-06,4.959295620210469e-05,,,,2.4570634670381003e-12,0.001184334646170366,-1.6819160711322028e-09,0.0010353038177441172,-0.11906773759597673,-0.11814852369407518
1624634331.981642,-5.271913547580708e-09,-5.548915184356453e-07,0.0,0.0,5.331242846295936e-06,4.959295620210469e-05,,,,2.4570634670381003e-12,0.001184334646170366,-1.6819160711322028e-09,0.0010353038177441172,-0.11906773759597673,-0.11814852369407518
1624634332.035642,-5.11904655416536e-09,-5.398987945071306e-07,0.0,0.0,5.331242846295936e-06,4.959295620210469e-05,,,,2.576292941659328e-12,0.0011170234407608015,-1.675486638959231e-09,0.001029738668786381,-0.11907653074980876,-0.11814648645386744
1624634332.035642,-5.11904655416536e-09,-5.398987945071306e-07,0.0,0.0,5.331242846295936e-06,4.959295620210469e-05,,,,2.576292941659328e-12,0.0011170234407608015,-1.675486638959231e-09,0.001029738668786381,-0.11907653074980876,-0.11814648645386744
1624634332.035642,-5.11904655416536e-09,-5.398987945071306e-07,0.0,0.0,5.331242846295936e-06,4.959295620210469e-05,1.2804877758026123,-0.0166015625,0.00244140625,2.576292941659328e-12,0.0011170234407608015,-1.675486638959231e-09,0.001029738668786381,-0.11907653074980876,-0.11814648645386744
1624634332.035642,-5.11904655416536e-09,-5.398987945071306e-07,5.86,4.94,5.331242846295936e-06,4.959295620210469e-05,1.2804877758026123,-0.0166015625,0.00244140625,2.576292941659328e-12,0.0011170234407608015,-1.675486638959231e-09,0.001029738668786381,-0.11907653074980876,-0.11814648645386744
1624634332.035642,-5.11904655416536e-09,-5.398987945071306e-07,5.86,4.94,5.331242846295936e-06,4.959295620210469e-05,1.2804877758026123,-0.0166015625,0.00244140625,2.576292941659328e-12,0.0011170234407608015,-1.675486638959231e-09,0.001029738668786381,-0.11907653074980876,-0.11814648645386744
1624634332.0956419,-4.958423495503153e-09,-5.239885044255543e-07,5.86,4.94,5.331242846295936e-06,4.959295620210469e-05,1.2804877758026123,-0.0166015625,0.00244140625,2.6772284291666814e-12,0.0010804142909233393,-1.6770312904080727e-09,0.001015487713715633,-0.11907793336543376,-0.1181400513082924
1624634332.0956419,-4.958423495503153e-09,-5.239885044255543e-07,5.86,4.94,5.331242846295936e-06,4.959295620210469e-05,1.2804877758026123,-0.0166015625,0.00244140625,2.6772284291666814e-12,0.0010804142909233393,-1.6770312904080727e-09,0.001015487713715633,-0.11907793336543376,-0.1181400513082924
1624634332.0956419,-4.958423495503153e-09,-5.239885044255543e-07,5.86,4.94,5.464523383125197e-06,5.0832779379561543e-05,1.2804877758026123,-0.0166015625,0.00244140625,2.6772284291666814e-12,0.0010804142909233393,-1.6770312904080727e-09,0.001015487713715633,-0.11907793336543376,-0.1181400513082924
1624634332.0956419,-4.958423495503153e-09,-5.239885044255543e-07,5.86,4.94,5.464523383125197e-06,5.0832779379561543e-05,1.2804877758026123,-0.0166015625,0.00244140625,2.6772284291666814e-12,0.0010804142909233393,-1.6770312904080727e-09,0.001015487713715633,-0.11907793336543376,-0.1181400513082924
1624634332.0956419,-4.958423495503153e-09,-5.239885044255543e-07,5.86,4.94,5.464523383125197e-06,5.0832779379561543e-05,1.402438998222351,-0.013671875,0.001953125,2.6772284291666814e-12,0.0010804142909233393,-1.6770312904080727e-09,0.001015487713715633,-0.11907793336543376,-0.1181400513082924
1624634332.169642,-4.784260484141365e-09,-5.066854681503388e-07,5.86,4.94,5.464523383125197e-06,5.0832779379561543e-05,1.402438998222351,-0.013671875,0.001953125,2.7030159080875864e-12,0.0010283733509411162,-1.7119395069366699e-09,0.0009932631338336285,-0.11906556902074403,-0.11811059234790011
1624634332.169642,-4.784260484141365e-09,-5.066854681503388e-07,5.86,4.94,5.464523383125197e-06,5.0832779379561543e-05,1.402438998222351,-0.013671875,0.001953125,2.7030159080875864e-12,0.0010283733509411162,-1.7119395069366699e-09,0.0009932631338336285,-0.11906556902074403,-0.11811059234790011
1624634332.169642,-4.784260484141365e-09,-5.066854681503388e-07,5.86,4.94,5.464523383125197e-06,5.0832779379561543e-05,1.402438998222351,-0.013671875,0.001953125,2.7030159080875864e-12,0.0010283733509411162,-1.7119395069366699e-09,0.0009932631338336285,-0.11906556902074403,-0.11811059234790011
1624634332.169642,-4.784260484141365e-09,-5.066854681503388e-07,5.85,4.95,5.331242846295936e-06,4.959295620210469e-05,1.402438998222351,-0.013671875,0.001953125,2.7030159080875864e-12,0.0010283733509411162,-1.7119395069366699e-09,0.0009932631338336285,-0.11906556902074403,-0.11811059234790011
1624634332.169642,-4.784260484141365e-09,-5.066854681503388e-07,5.85,4.95,5.331242846295936e-06,4.959295620210469e-05,1.402438998222351,-0.013671875,0.001953125,2.7030159080875864e-12,0.0010283733509411162,-1.7119395069366699e-09,0.0009932631338336285,-0.11906556902074403,-0.11811059234790011
1624634332.215642,-4.621112915514484e-09,-4.902113560810896e-07,5.85,4.95,5.331242846295936e-06,4.959295620210469e-05,1.402438998222351,-0.013671875,0.001953125,2.789046391299823e-12,0.000978458457034646,-1.6208932737080985e-09,0.0009507196904425855,-0.11908228548308333,-0.11812537948292139
1624634332.215642,-4.621112915514484e-09,-4.902113560810896e-07,5.85,4.95,5.331242846295936e-06,4.959295620210469e-05,1.402438998222351,-0.013671875,0.001953125,2.789046391299823e-12,0.000978458457034646,-1.6208932737080985e-09,0.0009507196904425855,-0.11908228548308333,-0.11812537948292139
1624634332.215642,-4.621112915514484e-09,-4.902113560810896e-07,5.85,4.95,5.331242846295936e-06,4.959295620210469e-05,1.402438998222351,-0.013671875,0.001953125,2.789046391299823e-12,0.000978458457034646,-1.6208932737080985e-09,0.0009507196904425855,-0.11908228548308333,-0.11812537948292139
1624634332.215642,-4.621112915514484e-09,-4.902113560810896e-07,5.85,4.95,5.331242846295936e-06,4.959295620210469e-05,1.402438998222351,-0.013671875,0.001953125,2.789046391299823e-12,0.000978458457034646,-1.6208932737080985e-09,0.0009507196904425855,-0.11908228548308333,-0.11812537948292139
1624634332.215642,-4.621112915514484e-09,-4.902113560810896e-07,5.85,4.95,5.331242846295936e-06,4.959295620210469e-05,1.2804877758026123,-0.009765625,0.00146484375,2.789046391299823e-12,0.000978458457034646,-1.6208932737080985e-09,0.0009507196904425855,-0.11908228548308333,-0.11812537948292139
1624634332.275642,-4.458143415020084e-09,-4.736179099572558e-07,5.85,4.95,5.331242846295936e-06,4.959295620210469e-05,1.2804877758026123,-0.009765625,0.00146484375,2.8043125277141153e-12,0.0009165101282193825,-1.587052115104849e-09,0.0008959264724629954,-0.1190852277998912,-0.1181299854514928
1624634332.275642,-4.458143415020084e-09,-4.736179099572558e-07,5.85,4.95,5.331242846295936e-06,4.959295620210469e-05,1.2804877758026123,-0.009765625,0.00146484375,2.8043125277141153e-12,0.0009165101282193825,-1.587052115104849e-09,0.0008959264724629954,-0.1190852277998912,-0.1181299854514928
1624634332.275642,-4.458143415020084e-09,-4.736179099572558e-07,5.86,4.96,5.331242846295936e-06,4.959295620210469e-05,1.2804877758026123,-0.009765625,0.00146484375,2.8043125277141153e-12,0.0009165101282193825,-1.587052115104849e-09,0.0008959264724629954,-0.1190852277998912,-0.1181299854514928
1624634332.275642,-4.458143415020084e-09,-4.736179099572558e-07,5.86,4.96,5.331242846295936e-06,4.959295620210469e-05,1.2804877758026123,-0.009765625,0.00146484375,2.8043125277141153e-12,0.0009165101282193825,-1.587052115104849e-09,0.0008959264724629954,-0.1190852277998912,-0.1181299854514928
1624634332.275642,-4.458143415020084e-09,-4.736179099572558e-07,5.86,4.96,5.331242846295936e-06,4.959295620210469e-05,1.2804877758026123,-0.009765625,0.00146484375,2.8043125277141153e-12,0.0009165101282193825,-1.587052115104849e-09,0.0008959264724629954,-0.1190852277998912,-0.1181299854514928
1624634332.275642,-4.341011564230837e-09,-4.6169200052045416e-07,5.86,4.96,5.2043083087482955e-06,4.8412170144729316e-05,1.2804877758026123,-0.009765625,0.00146484375,2.8525581961453633e-12,0.001188145540308365,-1.3634480842148552e-09,0.000972360899016357,-0.11907702310433693,-0.11817624720983035
1624634332.275642,-4.341011564230837e-09,-4.6169200052045416e-07,5.86,4.96,5.2043083087482955e-06,4.8412170144729316e-05,1.2804877758026123,-0.009765625,0.00146484375,2.8525581961453633e-12,0.001188145540308365,-1.3634480842148552e-09,0.000972360899016357,-0.11907702310433693,-0.11817624720983035
1624634332.275642,-4.341011564230837e-09,-4.6169200052045416e-07,5.86,4.96,5.2043083087482955e-06,4.8412170144729316e-05,1.2804877758026123,-0.009765625,0.00146484375,2.8525581961453633e-12,0.001188145540308365,-1.3634480842148552e-09,0.000972360899016357,-0.11907702310433693,-0.11817624720983035
1624634332.275642,-4.341011564230837e-09,-4.6169200052045416e-07,5.86,4.96,5.2043083087482955e-06,4.8412170144729316e-05,1.2804877758026123,-0.009765625,0.00146484375,2.8525581961453633e-12,0.001188145540308365,-1.3634480842148552e-09,0.000972360899016357,-0.11907702310433693,-0.11817624720983035
1624634332.275642,-4.341011564230837e-09,-4.6169200052045416e-07,5.86,4.96,5.2043083087482955e-06,4.8412170144729316e-05,1.2804877758026123,-0.009765625,0.00146484375,2.8525581961453633e-12,0.001188145540308365,-1.3634480842148552e-09,0.000972360899016357,-0.11907702310433693,-0.11817624720983035
1624634332.3356419,-4.214231604465298e-09,-4.4866571673863865e-07,5.86,4.96,5.2043083087482955e-06,4.8412170144729316e-05,1.402438998222351,-0.01953125,0.01025390625,2.874250391980831e-12,0.0011136786536409937,-1.3825572150179297e-09,0.0009902605369063403,-0.1190777388058695,-0.11816876464985646
1624634332.3356419,-4.214231604465298e-09,-4.4866571673863865e-07,5.86,4.96,5.331242846295936e-06,4.959295620210469e-05,1.402438998222351,-0.01953125,0.01025390625,2.874250391980831e-12,0.0011136786536409937,-1.3825572150179297e-09,0.0009902605369063403,-0.1190777388058695,-0.11816876464985646
1624634332.3356419,-4.214231604465298e-09,-4.4866571673863865e-07,5.86,4.98,5.331242846295936e-06,4.959295620210469e-05,1.402438998222351,-0.01953125,0.01025390625,2.874250391980831e-12,0.0011136786536409937,-1.3825572150179297e-09,0.0009902605369063403,-0.1190777388058695,-0.11816876464985646
1624634332.3356419,-4.214231604465298e-09,-4.4866571673863865e-07,5.86,4.98,5.331242846295936e-06,4.959295620210469e-05,1.402438998222351,-0.01953125,0.01025390625,2.874250391980831e-12,0.0011136786536409937,-1.3825572150179297e-09,0.0009902605369063403,-0.1190777388058695,-0.11816876464985646
1624634332.3356419,-4.214231604465298e-09,-4.4866571673863865e-07,5.86,4.98,5.331242846295936e-06,4.959295620210469e-05,1.402438998222351,-0.01953125,0.01025390625,2.874250391980831e-12,0.0011136786536409937,-1.3825572150179297e-09,0.0009902605369063403,-0.1190777388058695,-0.11816876464985646
1624634332.3956418,-4.08130513330106e-09,-4.348925816501384e-07,5.86,4.98,5.331242846295936e-06,4.959295620210469e-05,1.402438998222351,-0.01953125,0.01025390625,2.9705237512014813e-12,0.0012634105668715488,-1.3825464718617947e-09,0.00107105902425826,-0.11907193299366282,-0.11815653044242543
1624634332.3956418,-4.08130513330106e-09,-4.348925816501384e-07,5.86,4.98,5.331242846295936e-06,4.959295620210469e-05,1.402438998222351,-0.01953125,0.01025390625,2.9705237512014813e-12,0.0012634105668715488,-1.3825464718617947e-09,0.00107105902425826,-0.11907193299366282,-0.11815653044242543
1624634332.3956418,-4.08130513330106e-09,-4.348925816501384e-07,5.86,4.98,5.331242846295936e-06,4.959295620210469e-05,1.402438998222351,-0.01953125,0.01025390625,2.9705237512014813e-12,0.0012634105668715488,-1.3825464718617947e-09,0.00107105902425826,-0.11907193299366282,-0.11815653044242543
1624634332.3956418,-4.08130513330106e-09,-4.348925816501384e-07,5.86,4.98,5.331242846295936e-06,4.959295620210469e-05,1.402438998222351,-0.01953125,0.01025390625,2.9705237512014813e-12,0.0012634105668715488,-1.3825464718617947e-09,0.00107105902425826,-0.11907193299366282,-0.11815653044242543
1624634332.3956418,-4.08130513330106e-09,-4.348925816501384e-07,5.86,4.98,5.331242846295936e-06,4.959295620210469e-05,1.402438998222351,-0.0166015625,-0.00048828125,3.029354033821078e-12,0.0011837128408188535,-1.3825464718617947e-09,0.00107105902425826,-0.11907367606017494,-0.11815653044242543
1624634332.455642,-3.945225820916738e-09,-4.2068241046832884e-07,5.86,4.98,5.331242846295936e-06,4.959295620210469e-05,1.402438998222351,-0.0166015625,-0.00048828125,3.029354033821078e-12,0.0011837128408188535,-1.368446844887958e-09,0.0010704679894551247,-0.11907367606017494,-0.11814601251774268
1624634332.455642,-3.945225820916738e-09,-4.2068241046832884e-07,5.86,4.98,5.331242846295936e-06,4.959295620210469e-05,1.402438998222351,-0.0166015625,-0.00048828125,3.029354033821078e-12,0.0011837128408188535,-1.368446844887958e-09,0.0010704679894551247,-0.11907367606017494,-0.11814601251774268
1624634332.455642,-3.945225820916738e-09,-4.2068241046832884e-07,5.86,4.98,5.331242846295936e-06,4.959295620210469e-05,1.402438998222351,-0.0166015625,-0.00048828125,3.029354033821078e-12,0.0011837128408188535,-1.368446844887958e-09,0.0010704679894551247,-0.11907367606017494,-0.11814601251774268
1624634332.455642,-3.945225820916738e-09,-4.2068241046832884e-07,5.86,4.98,5.331242846295936e-06,4.959295620210469e-05,1.402438998222351,-0.0166015625,-0.00048828125,3.029354033821078e-12,0.0011837128408188535,-1.368446844887958e-09,0.0010704679894551247,-0.11907367606017494,-0.11814601251774268
1624634332.455642,-3.945225820916738e-09,-4.2068241046832884e-07,5.86,4.98,5.331242846295936e-06,4.959295620210469e-05,1.402438998222351,-0.0166015625,-0.00048828125,3.029354033821078e-12,0.0011837128408188535,-1.368446844887958e-09,0.0010704679894551247,-0.11907367606017494,-0.11814601251774268
1624634332.515642,-3.808262266832743e-09,-4.0627327092086505e-07,5.86,4.98,5.331242846295936e-06,4.959295620210469e-05,1.402438998222351,-0.0166015625,-0.00048828125,3.157633641018635e-12,0.0013071464933414553,-1.344204976265112e-09,0.0011261580361407112,-0.11906844096702325,-0.11813260672087617
1624634332.515642,-3.808262266832743e-09,-4.0627327092086505e-07,5.86,4.98,5.331242846295936e-06,4.959295620210469e-05,1.402438998222351,-0.0166015625,-0.00048828125,3.157633641018635e-12,0.0013071464933414553,-1.344204976265112e-09,0.0011261580361407112,-0.11906844096702325,-0.11813260672087617
1624634332.515642,-3.808262266832743e-09,-4.0627327092086505e-07,5.86,4.98,5.331242846295936e-06,4.959295620210469e-05,1.402438998222351,-0.0166015625,-0.00048828125,3.157633641018635e-12,0.0013071464933414553,-1.344204976265112e-09,0.0011261580361407112,-0.11906844096702325,-0.11813260672087617
1624634332.515642,-3.808262266832743e-09,-4.0627327092086505e-07,5.86,4.98,5.331242846295936e-06,4.959295620210469e-05,1.402438998222351,-0.0166015625,-0.00048828125,3.157633641018635e-12,0.0013071464933414553,-1.344204976265112e-09,0.0011261580361407112,-0.11906844096702325,-0.11813260672087617
1624634332.515642,-3.808262266832743e-09,-4.0627327092086505e-07,5.86,4.98,5.331242846295936e-06,4.959295620210469e-05,1.402438998222351,-0.01708984375,0.0078125,3.2278935235405245e-12,0.0012242487512337725,-1.344204976265112e-09,0.0011261580361407112,-0.11907108826242549,-0.11813260672087617
1624634332.5756419,-3.6721919567606718e-09,-3.9185732286769694e-07,5.86,4.98,5.331242846295936e-06,4.959295620210469e-05,1.402438998222351,-0.01708984375,0.0078125,3.2278935235405245e-12,0.0012242487512337725,-1.3130664675471596e-09,0.0011117259351610845,-0.11907108826242549,-0.11812287263807085
1624634332.5756419,-3.6721919567606718e-09,-3.9185732286769694e-07,5.86,4.98,5.331242846295936e-06,4.959295620210469e-05,1.402438998222351,-0.01708984375,0.0078125,3.2278935235405245e-12,0.0012242487512337725,-1.3130664675471596e-09,0.0011117259351610845,-0.11907108826242549,-0.11812287263807085
1624634332.5756419,-3.6721919567606718e-09,-3.9185732286769694e-07,5.86,4.98,5.331242846295936e-06,4.959295620210469e-05,1.402438998222351,-0.01708984375,0.0078125,3.2278935235405245e-12,0.0012242487512337725,-1.3130664675471596e-09,0.0011117259351610845,-0.11907108826242549,-0.11812287263807085
1624634332.5756419,-3.6721919567606718e-09,-3.9185732286769694e-07,5.86,4.98,5.331242846295936e-06,4.959295620210469e-05,1.402438998222351,-0.01708984375,0.0078125,3.2278935235405245e-12,0.0012242487512337725,-1.3130664675471596e-09,0.0011117259351610845,-0.11907108826242549,-0.11812287263807085
1624634332.5756419,-3.6721919567606718e-09,-3.9185732286769694e-07,5.86,4.98,5.331242846295936e-06,4.959295620210469e-05,1.402438998222351,-0.01708984375,0.0078125,3.2278935235405245e-12,0.0012242487512337725,-1.3130664675471596e-09,0.0011117259351610845,-0.11907108826242549,-0.11812287263807085
1624634332.5756419,-3.574617830419359e-09,-3.815196891871823e-07,5.86,4.98,5.331242846295936e-06,4.959295620210469e-05,1.402438998222351,-0.01708984375,0.0078125,3.193722792232178e-12,0.0010381073842563753,-1.1268868824643224e-09,0.0010567250640257217,-0.11907684451365935,-0.1181776739142275
1624634332.5756419,-3.574617830419359e-09,-3.815196891871823e-07,5.86,4.98,5.331242846295936e-06,4.959295620210469e-05,1.402438998222351,-0.01708984375,0.0078125,3.193722792232178e-12,0.0010381073842563753,-1.1268868824643224e-09,0.0010567250640257217,-0.11907684451365935,-0.1181776739142275
1624634332.5756419,-3.574617830419359e-09,-3.815196891871823e-07,5.86,4.98,5.331242846295936e-06,4.959295620210469e-05,1.402438998222351,-0.01708984375,0.0078125,3.193722792232178e-12,0.0010381073842563753,-1.1268868824643224e-09,0.0010567250640257217,-0.11907684451365935,-0.1181776739142275
1624634332.5756419,-3.574617830419359e-09,-3.815196891871823e-07,5.86,4.98,5.331242846295936e-06,4.959295620210469e-05,1.2804877758026123,-0.01416015625,0.0048828125,3.193722792232178e-12,0.0010381073842563753,-1.1268868824643224e-09,0.0010567250640257217,-0.11907684451365935,-0.1181776739142275
1624634332.5756419,-3.574617830419359e-09,-3.815196891871823e-07,5.86,4.98,5.331242846295936e-06,4.959295620210469e-05,1.2804877758026123,-0.01416015625,0.0048828125,3.1404971416161523e-12,0.0013638584328165954,-1.1268868824643224e-09,0.0010567250640257217,-0.11902635494811468,-0.1181776739142275
1624634332.669642,-3.453357784499591e-09,-3.688506863593092e-07,5.86,4.98,5.331242846295936e-06,4.959295620210469e-05,1.2804877758026123,-0.01416015625,0.0048828125,3.1404971416161523e-12,0.0013638584328165954,-1.2312064362130623e-09,0.0011860304581417574,-0.11902635494811468,-0.11810246208082693
1624634332.669642,-3.453357784499591e-09,-3.688506863593092e-07,5.86,4.98,5.331242846295936e-06,4.959295620210469e-05,1.2804877758026123,-0.01416015625,0.0048828125,3.1404971416161523e-12,0.0013638584328165954,-1.2312064362130623e-09,0.0011860304581417574,-0.11902635494811468,-0.11810246208082693
1624634332.669642,-3.453357784499591e-09,-3.688506863593092e-07,5.85,4.98,5.331242846295936e-06,4.959295620210469e-05,1.2804877758026123,-0.01416015625,0.0048828125,3.1404971416161523e-12,0.0013638584328165954,-1.2312064362130623e-09,0.0011860304581417574,-0.11902635494811468,-0.11810246208082693
1624634332.669642,-3.453357784499591e-09,-3.688506863593092e-07,5.85,4.98,5.331242846295936e-06,4.959295620210469e-05,1.2804877758026123,-0.01416015625,0.0048828125,3.1404971416161523e-12,0.0013638584328165954,-1.2312064362130623e-09,0.0011860304581417574,-0.11902635494811468,-0.11810246208082693
1624634332.669642,-3.453357784499591e-09,-3.688506863593092e-07,5.85,4.98,5.331242846295936e-06,4.959295620210469e-05,1.2804877758026123,-0.01416015625,0.0048828125,3.1404971416161523e-12,0.0013638584328165954,-1.2312064362130623e-09,0.0011860304581417574,-0.11902635494811468,-0.11810246208082693
1624634332.695642,-3.3479129914214505e-09,-3.574683708968681e-07,5.85,4.98,5.331242846295936e-06,4.959295620210469e-05,1.2804877758026123,-0.01416015625,0.0048828125,3.2771006113186227e-12,0.0013252058384960878,-1.1197092911130664e-09,0.0012060719669877997,-0.11906976494922167,-0.1181262825737936
1624634332.695642,-3.3479129914214505e-09,-3.574683708968681e-07,5.85,4.98,5.464523383125197e-06,5.0832779379561543e-05,1.2804877758026123,-0.01416015625,0.0048828125,3.2771006113186227e-12,0.0013252058384960878,-1.1197092911130664e-09,0.0012060719669877997,-0.11906976494922167,-0.1181262825737936
1624634332.695642,-3.3479129914214505e-09,-3.574683708968681e-07,5.85,4.98,5.464523383125197e-06,5.0832779379561543e-05,1.2804877758026123,-0.01416015625,0.0048828125,3.2771006113186227e-12,0.0013252058384960878,-1.1197092911130664e-09,0.0012060719669877997,-0.11906976494922167,-0.1181262825737936
1624634332.695642,-3.3479129914214505e-09,-3.574683708968681e-07,5.85,4.98,5.464523383125197e-06,5.0832779379561543e-05,1.4634146690368652,-0.0166015625,0.0107421875,3.2771006113186227e-12,0.0013252058384960878,-1.1197092911130664e-09,0.0012060719669877997,-0.11906976494922167,-0.1181262825737936
1624634332.695642,-3.3479129914214505e-09,-3.574683708968681e-07,5.85,4.98,5.464523383125197e-06,5.0832779379561543e-05,1.4634146690368652,-0.0166015625,0.0107421875,3.2928823496247514e-12,0.0015094945556290386,-1.1197092911130664e-09,0.0012060719669877997,-0.11903624768009878,-0.1181262825737936
1624634332.7736418,-3.230744960953491e-09,-3.448948828106158e-07,5.85,4.98,5.464523383125197e-06,5.0832779379561543e-05,1.4634146690368652,-0.0166015625,0.0107421875,3.2928823496247514e-12,0.0015094945556290386,-1.1568907127613108e-09,0.0013205269949293926,-0.11903624768009878,-0.11806746031566026
1624634332.7736418,-3.230744960953491e-09,-3.448948828106158e-07,5.85,4.98,5.464523383125197e-06,5.0832779379561543e-05,1.4634146690368652,-0.0166015625,0.0107421875,3.2928823496247514e-12,0.0015094945556290386,-1.1568907127613108e-09,0.0013205269949293926,-0.11903624768009878,-0.11806746031566026
1624634332.7736418,-3.230744960953491e-09,-3.448948828106158e-07,5.86,5.0,5.331242846295936e-06,4.959295620210469e-05,1.4634146690368652,-0.0166015625,0.0107421875,3.2928823496247514e-12,0.0015094945556290386,-1.1568907127613108e-09,0.0013205269949293926,-0.11903624768009878,-0.11806746031566026
1624634332.7736418,-3.230744960953491e-09,-3.448948828106158e-07,5.86,5.0,5.331242846295936e-06,4.959295620210469e-05,1.4634146690368652,-0.0166015625,0.0107421875,3.2928823496247514e-12,0.0015094945556290386,-1.1568907127613108e-09,0.0013205269949293926,-0.11903624768009878,-0.11806746031566026
1624634332.7736418,-3.230744960953491e-09,-3.448948828106158e-07,5.86,5.0,5.331242846295936e-06,4.959295620210469e-05,1.4634146690368652,-0.0166015625,0.0107421875,3.424267394034564e-12,0.0014420883370528323,-1.1568907127613108e-09,0.0013205269949293926,-0.11906265223723211,-0.11806746031566026
1624634332.8156419,-3.1226597519438244e-09,-3.33062831304638e-07,5.86,5.0,5.331242846295936e-06,4.959295620210469e-05,1.4634146690368652,-0.0166015625,0.0107421875,3.424267394034564e-12,0.0014420883370528323,-1.0860546668326958e-09,0.00132792067946336,-0.11906265223723211,-0.11807148637749462
1624634332.8156419,-3.1226597519438244e-09,-3.33062831304638e-07,5.86,5.0,5.331242846295936e-06,4.959295620210469e-05,1.4634146690368652,-0.0166015625,0.0107421875,3.424267394034564e-12,0.0014420883370528323,-1.0860546668326958e-09,0.00132792067946336,-0.11906265223723211,-0.11807148637749462
1624634332.8156419,-3.1226597519438244e-09,-3.33062831304638e-07,5.86,5.0,5.331242846295936e-06,4.959295620210469e-05,1.4634146690368652,-0.0166015625,0.0107421875,3.424267394034564e-12,0.0014420883370528323,-1.0860546668326958e-09,0.00132792067946336,-0.11906265223723211,-0.11807148637749462
1624634332.8156419,-3.1226597519438244e-09,-3.33062831304638e-07,5.86,5.0,5.331242846295936e-06,4.959295620210469e-05,1.4634146690368652,-0.0166015625,0.0107421875,3.424267394034564e-12,0.0014420883370528323,-1.0860546668326958e-09,0.00132792067946336,-0.11906265223723211,-0.11807148637749462
1624634332.8156419,-3.1226597519438244e-09,-3.33062831304638e-07,5.86,5.0,5.331242846295936e-06,4.959295620210469e-05,1.402438998222351,-0.01904296875,0.00439453125,3.4743858756934364e-12,0.0013505643384014994,-1.0860546668326958e-09,0.00132792067946336,-0.11906523666082039,-0.11807148637749462
1624634332.8756418,-3.0140619609868636e-09,-3.2111285331642347e-07,5.86,5.0,5.331242846295936e-06,4.959295620210469e-05,1.402438998222351,-0.01904296875,0.00439453125,3.4743858756934364e-12,0.0013505643384014994,-1.065829159894734e-09,0.0012902507500405782,-0.11906523666082039,-0.11805571108209224
1624634332.8756418,-3.0140619609868636e-09,-3.2111285331642347e-07,5.86,5.0,5.331242846295936e-06,4.959295620210469e-05,1.402438998222351,-0.01904296875,0.00439453125,3.4743858756934364e-12,0.0013505643384014994,-1.065829159894734e-09,0.0012902507500405782,-0.11906523666082039,-0.11805571108209224
1624634332.8756418,-3.0140619609868636e-09,-3.2111285331642347e-07,5.85,4.99,5.331242846295936e-06,4.959295620210469e-05,1.402438998222351,-0.01904296875,0.00439453125,3.4743858756934364e-12,0.0013505643384014994,-1.065829159894734e-09,0.0012902507500405782,-0.11906523666082039,-0.11805571108209224
1624634332.8756418,-3.0140619609868636e-09,-3.2111285331642347e-07,5.85,4.99,5.331242846295936e-06,4.959295620210469e-05,1.402438998222351,-0.01904296875,0.00439453125,3.4743858756934364e-12,0.0013505643384014994,-1.065829159894734e-09,0.0012902507500405782,-0.11906523666082039,-0.11805571108209224
1624634332.8756418,-3.0140619609868636e-09,-3.2111285331642347e-07,5.85,4.99,5.464523383125197e-06,5.0832779379561543e-05,1.402438998222351,-0.01904296875,0.00439453125,3.504299908298028e-12,0.0015520603553882027,-1.065829159894734e-09,0.0012902507500405782,-0.11905587284309317,-0.11805571108209224
1624634332.877642,-2.9350641973233954e-09,-3.124349108034571e-07,5.85,4.99,5.464523383125197e-06,5.0832779379561543e-05,1.402438998222351,-0.01904296875,0.00439453125,3.504299908298028e-12,0.0015520603553882027,-9.208807025284369e-10,0.0013556241404614816,-0.11905587284309317,-0.11810129737490119
1624634332.877642,-2.9350641973233954e-09,-3.124349108034571e-07,5.85,4.99,5.464523383125197e-06,5.0832779379561543e-05,1.402438998222351,-0.01904296875,0.00439453125,3.504299908298028e-12,0.0015520603553882027,-9.208807025284369e-10,0.0013556241404614816,-0.11905587284309317,-0.11810129737490119
1624634332.877642,-2.9350641973233954e-09,-3.124349108034571e-07,5.85,4.99,5.464523383125197e-06,5.0832779379561543e-05,1.402438998222351,-0.01904296875,0.00439453125,3.504299908298028e-12,0.0015520603553882027,-9.208807025284369e-10,0.0013556241404614816,-0.11905587284309317,-0.11810129737490119
1624634332.877642,-2.9350641973233954e-09,-3.124349108034571e-07,5.85,4.99,5.464523383125197e-06,5.0832779379561543e-05,1.402438998222351,-0.01904296875,0.00439453125,3.504299908298028e-12,0.0015520603553882027,-9.208807025284369e-10,0.0013556241404614816,-0.11905587284309317,-0.11810129737490119
1624634332.935642,-2.8502620471620242e-09,-3.0304858557264547e-07,5.85,4.99,5.464523383125197e-06,5.0832779379561543e-05,1.402438998222351,-0.0068359375,0.00244140625,3.5499853658959723e-12,0.0014576734336221632,-9.295591607181839e-10,0.0013567273709391985,-0.11906072500510696,-0.11807894294470651
1624634332.935642,-2.8502620471620242e-09,-3.0304858557264547e-07,5.85,4.99,5.331242846295936e-06,4.959295620210469e-05,1.402438998222351,-0.0068359375,0.00244140625,3.5499853658959723e-12,0.0014576734336221632,-9.295591607181839e-10,0.0013567273709391985,-0.11906072500510696,-0.11807894294470651
1624634332.935642,-2.8502620471620242e-09,-3.0304858557264547e-07,5.85,4.99,5.331242846295936e-06,4.959295620210469e-05,1.402438998222351,-0.0068359375,0.00244140625,3.5499853658959723e-12,0.0014576734336221632,-9.295591607181839e-10,0.0013567273709391985,-0.11906072500510696,-0.11807894294470651
1624634332.935642,-2.8502620471620242e-09,-3.0304858557264547e-07,5.85,4.99,5.331242846295936e-06,4.959295620210469e-05,1.402438998222351,-0.0068359375,0.00244140625,3.5499853658959723e-12,0.0014576734336221632,-9.295591607181839e-10,0.0013567273709391985,-0.11906072500510696,-0.11807894294470651
1624634332.935642,-2.8502620471620242e-09,-3.0304858557264547e-07,5.85,4.99,5.331242846295936e-06,4.959295620210469e-05,1.402438998222351,-0.0068359375,0.00244140625,3.5499853658959723e-12,0.0014576734336221632,-9.295591607181839e-10,0.0013567273709391985,-0.11906072500510696,-0.11807894294470651
1624634332.995642,-2.7610594104187333e-09,-2.931236600919631e-07,5.85,4.99,5.331242846295936e-06,4.959295620210469e-05,1.402438998222351,-0.0068359375,0.00244140625,3.5890246026834016e-12,0.0013554581891943754,-9.30821747949185e-10,0.0013182233576134429,-0.11906395395789668,-0.118058093459184
1624634332.995642,-2.7610594104187333e-09,-2.931236600919631e-07,5.85,4.99,5.331242846295936e-06,4.959295620210469e-05,1.402438998222351,-0.0068359375,0.00244140625,3.5890246026834016e-12,0.0013554581891943754,-9.30821747949185e-10,0.0013182233576134429,-0.11906395395789668,-0.118058093459184
1624634332.995642,-2.7610594104187333e-09,-2.931236600919631e-07,5.85,4.99,5.331242846295936e-06,4.959295620210469e-05,1.402438998222351,-0.0068359375,0.00244140625,3.5890246026834016e-12,0.0013554581891943754,-9.30821747949185e-10,0.0013182233576134429,-0.11906395395789668,-0.118058093459184
1624634332.995642,-2.7610594104187333e-09,-2.931236600919631e-07,5.85,4.99,5.331242846295936e-06,4.959295620210469e-05,1.402438998222351,-0.0068359375,0.00244140625,3.5890246026834016e-12,0.0013554581891943754,-9.30821747949185e-10,0.0013182233576134429,-0.11906395395789668,-0.118058093459184
1624634332.995642,-2.7610594104187333e-09,-2.931236600919631e-07,5.85,4.99,5.331242846295936e-06,4.959295620210469e-05,1.402438998222351,-0.01123046875,0.0029296875,3.5890246026834016e-12,0.0013554581891943754,-9.30821747949185e-10,0.0013182233576134429,-0.11906395395789668,-0.118058093459184
1624634333.0656419,-2.6657674752563164e-09,-2.8255183323356577e-07,5.85,4.99,5.331242846295936e-06,4.959295620210469e-05,1.402438998222351,-0.01123046875,0.0029296875,3.5115002667939498e-12,0.0010097563411030532,-9.425127788046124e-10,0.001134076809673233,-0.11906493161755362,-0.11802934403104968
1624634333.0656419,-2.6657674752563164e-09,-2.8255183323356577e-07,5.85,4.99,5.331242846295936e-06,4.959295620210469e-05,1.402438998222351,-0.01123046875,0.0029296875,3.5115002667939498e-12,0.0010097563411030532,-9.425127788046124e-10,0.001134076809673233,-0.11906493161755362,-0.11802934403104968
1624634333.0656419,-2.6657674752563164e-09,-2.8255183323356577e-07,5.85,4.99,5.331242846295936e-06,4.959295620210469e-05,1.402438998222351,-0.01123046875,0.0029296875,3.5115002667939498e-12,0.0010097563411030532,-9.425127788046124e-10,0.001134076809673233,-0.11906493161755362,-0.11802934403104968
1624634333.0656419,-2.6657674752563164e-09,-2.8255183323356577e-07,5.86,5.0,5.331242846295936e-06,4.959295620210469e-05,1.402438998222351,-0.01123046875,0.0029296875,3.5115002667939498e-12,0.0010097563411030532,-9.425127788046124e-10,0.001134076809673233,-0.11906493161755362,-0.11802934403104968
1624634333.0656419,-2.6657674752563164e-09,-2.8255183323356577e-07,5.86,5.0,5.331242846295936e-06,4.959295620210469e-05,1.402438998222351,-0.01123046875,0.0029296875,3.5115002667939498e-12,0.0010097563411030532,-9.425127788046124e-10,0.001134076809673233,-0.11906493161755362,-0.11802934403104968
1624634333.115733,-2.574562503138294e-09,-2.722951185874172e-07,5.86,5.0,5.331242846295936e-06,4.959295620210469e-05,1.402438998222351,-0.01123046875,0.0029296875,3.488253055477977e-12,0.0009564519052460971,-9.021681534887919e-10,0.0010256618738125722,-0.11908075649571086,-0.11804189919024431
1624634333.115733,-2.574562503138294e-09,-2.722951185874172e-07,5.86,5.0,5.331242846295936e-06,4.959295620210469e-05,1.402438998222351,-0.01123046875,0.0029296875,3.488253055477977e-12,0.0009564519052460971,-9.021681534887919e-10,0.0010256618738125722,-0.11908075649571086,-0.11804189919024431
1624634333.115733,-2.574562503138294e-09,-2.722951185874172e-07,5.86,5.0,5.331242846295936e-06,4.959295620210469e-05,1.402438998222351,-0.01123046875,0.0029296875,3.488253055477977e-12,0.0009564519052460971,-9.021681534887919e-10,0.0010256618738125722,-0.11908075649571086,-0.11804189919024431
1624634333.115733,-2.574562503138294e-09,-2.722951185874172e-07,5.86,5.0,5.331242846295936e-06,4.959295620210469e-05,1.402438998222351,-0.01123046875,0.0029296875,3.488253055477977e-12,0.0009564519052460971,-9.021681534887919e-10,0.0010256618738125722,-0.11908075649571086,-0.11804189919024431
1624634333.115733,-2.574562503138294e-09,-2.722951185874172e-07,5.86,5.0,5.331242846295936e-06,4.959295620210469e-05,1.402438998222351,-0.015625,0.005859375,3.488253055477977e-12,0.0009564519052460971,-9.021681534887919e-10,0.0010256618738125722,-0.11908075649571086,-0.11804189919024431
1624634333.1757329,-2.4835576818001444e-09,-2.6201864192732607e-07,5.86,5.0,5.331242846295936e-06,4.959295620210469e-05,1.402438998222351,-0.015625,0.005859375,3.380104219469762e-12,0.0008957593278260984,-8.829540123814645e-10,0.0009334516243843579,-0.11908510821379412,-0.11804902938181165
1624634333.1757329,-2.4835576818001444e-09,-2.6201864192732607e-07,5.86,5.0,5.331242846295936e-06,4.959295620210469e-05,1.402438998222351,-0.015625,0.005859375,3.380104219469762e-12,0.0008957593278260984,-8.829540123814645e-10,0.0009334516243843579,-0.11908510821379412,-0.11804902938181165
1624634333.1757329,-2.4835576818001444e-09,-2.6201864192732607e-07,5.86,4.99,5.331242846295936e-06,4.959295620210469e-05,1.402438998222351,-0.015625,0.005859375,3.380104219469762e-12,0.0008957593278260984,-8.829540123814645e-10,0.0009334516243843579,-0.11908510821379412,-0.11804902938181165
1624634333.1757329,-2.4835576818001444e-09,-2.6201864192732607e-07,5.86,4.99,5.331242846295936e-06,4.959295620210469e-05,1.402438998222351,-0.015625,0.005859375,3.380104219469762e-12,0.0008957593278260984,-8.829540123814645e-10,0.0009334516243843579,-0.11908510821379412,-0.11804902938181165
1624634333.1757329,-2.4835576818001444e-09,-2.6201864192732607e-07,5.86,4.99,5.331242846295936e-06,4.959295620210469e-05,1.402438998222351,-0.015625,0.005859375,3.380104219469762e-12,0.0008957593278260984,-8.829540123814645e-10,0.0009334516243843579,-0.11908510821379412,-0.11804902938181165
1624634333.1757329,-2.418174986779477e-09,-2.546358311883386e-07,5.86,4.99,5.331242846295936e-06,4.959295620210469e-05,1.402438998222351,-0.015625,0.005859375,3.4216068334201326e-12,0.0011390487629935695,-7.58167794809471e-10,0.0009773867064532679,-0.1190777478609978,-0.11810128963529394
1624634333.1757329,-2.418174986779477e-09,-2.546358311883386e-07,5.86,4.99,5.331242846295936e-06,4.959295620210469e-05,1.402438998222351,-0.015625,0.005859375,3.4216068334201326e-12,0.0011390487629935695,-7.58167794809471e-10,0.0009773867064532679,-0.1190777478609978,-0.11810128963529394
1624634333.1757329,-2.418174986779477e-09,-2.546358311883386e-07,5.86,4.99,5.331242846295936e-06,4.959295620210469e-05,1.402438998222351,-0.015625,0.005859375,3.4216068334201326e-12,0.0011390487629935695,-7.58167794809471e-10,0.0009773867064532679,-0.1190777478609978,-0.11810128963529394
1624634333.1757329,-2.418174986779477e-09,-2.546358311883386e-07,5.86,4.99,5.331242846295936e-06,4.959295620210469e-05,1.402438998222351,-0.015625,0.005859375,3.4216068334201326e-12,0.0011390487629935695,-7.58167794809471e-10,0.0009773867064532679,-0.1190777478609978,-0.11810128963529394
1624634333.1757329,-2.418174986779477e-09,-2.546358311883386e-07,5.86,4.99,5.331242846295936e-06,4.959295620210469e-05,1.3414634466171265,-0.00732421875,0.01025390625,3.4216068334201326e-12,0.0011390487629935695,-7.58167794809471e-10,0.0009773867064532679,-0.1190777478609978,-0.11810128963529394
1624634333.273733,-2.335368235945211e-09,-2.4553984449740356e-07,5.86,4.99,5.331242846295936e-06,4.959295620210469e-05,1.3414634466171265,-0.00732421875,0.01025390625,3.2212914348857283e-12,0.0012566618268274126,-8.36840486793319e-10,0.0010919183071576176,-0.11902701310932005,-0.11803168059389955
1624634333.273733,-2.335368235945211e-09,-2.4553984449740356e-07,5.86,4.99,5.331242846295936e-06,4.959295620210469e-05,1.3414634466171265,-0.00732421875,0.01025390625,3.2212914348857283e-12,0.0012566618268274126,-8.36840486793319e-10,0.0010919183071576176,-0.11902701310932005,-0.11803168059389955
1624634333.273733,-2.335368235945211e-09,-2.4553984449740356e-07,5.87,5.0,5.331242846295936e-06,4.959295620210469e-05,1.3414634466171265,-0.00732421875,0.01025390625,3.2212914348857283e-12,0.0012566618268274126,-8.36840486793319e-10,0.0010919183071576176,-0.11902701310932005,-0.11803168059389955
1624634333.273733,-2.335368235945211e-09,-2.4553984449740356e-07,5.87,5.0,5.331242846295936e-06,4.959295620210469e-05,1.3414634466171265,-0.00732421875,0.01025390625,3.2212914348857283e-12,0.0012566618268274126,-8.36840486793319e-10,0.0010919183071576176,-0.11902701310932005,-0.11803168059389955
1624634333.273733,-2.335368235945211e-09,-2.4553984449740356e-07,5.87,5.0,5.331242846295936e-06,4.959295620210469e-05,1.3414634466171265,-0.00732421875,0.01025390625,3.2212914348857283e-12,0.0012566618268274126,-8.36840486793319e-10,0.0010919183071576176,-0.11902701310932005,-0.11803168059389955
1624634333.295733,-2.2647623731161494e-09,-2.3745358048527922e-07,5.87,5.0,5.331242846295936e-06,4.959295620210469e-05,1.3414634466171265,-0.00732421875,0.01025390625,3.284496976595431e-12,0.0012259239597742428,-7.533640957127543e-10,0.001108263599633047,-0.11907333772178454,-0.11806627044289278
1624634333.295733,-2.2647623731161494e-09,-2.3745358048527922e-07,5.87,5.0,5.331242846295936e-06,4.959295620210469e-05,1.3414634466171265,-0.00732421875,0.01025390625,3.284496976595431e-12,0.0012259239597742428,-7.533640957127543e-10,0.001108263599633047,-0.11907333772178454,-0.11806627044289278
1624634333.295733,-2.2647623731161494e-09,-2.3745358048527922e-07,5.87,5.0,5.331242846295936e-06,4.959295620210469e-05,1.3414634466171265,-0.00732421875,0.01025390625,3.284496976595431e-12,0.0012259239597742428,-7.533640957127543e-10,0.001108263599633047,-0.11907333772178454,-0.11806627044289278
1624634333.295733,-2.2647623731161494e-09,-2.3745358048527922e-07,5.87,5.0,5.331242846295936e-06,4.959295620210469e-05,1.3414634466171265,-0.00732421875,0.01025390625,3.284496976595431e-12,0.0012259239597742428,-7.533640957127543e-10,0.001108263599633047,-0.11907333772178454,-0.11806627044289278
1624634333.295733,-2.2647623731161494e-09,-2.3745358048527922e-07,5.87,5.0,5.331242846295936e-06,4.959295620210469e-05,1.3414634466171265,-0.00732421875,0.01025390625,3.284496976595431e-12,0.0012259239597742428,-7.533640957127543e-10,0.001108263599633047,-0.11907333772178454,-0.11806627044289278
1624634333.355733,-2.1915642489112313e-09,-2.2904602290841719e-07,5.87,5.0,5.331242846295936e-06,4.959295620210469e-05,1.402438998222351,-0.01708984375,0.00537109375,3.223459390053099e-12,0.0011485215605197415,-7.495831514743303e-10,0.0010832368946759843,-0.11907521617637681,-0.11806132011777114
1624634333.355733,-2.1915642489112313e-09,-2.2904602290841719e-07,5.87,5.0,5.331242846295936e-06,4.959295620210469e-05,1.402438998222351,-0.01708984375,0.00537109375,3.223459390053099e-12,0.0011485215605197415,-7.495831514743303e-10,0.0010832368946759843,-0.11907521617637681,-0.11806132011777114
1624634333.355733,-2.1915642489112313e-09,-2.2904602290841719e-07,5.87,5.0,5.331242846295936e-06,4.959295620210469e-05,1.402438998222351,-0.01708984375,0.00537109375,3.223459390053099e-12,0.0011485215605197415,-7.495831514743303e-10,0.0010832368946759843,-0.11907521617637681,-0.11806132011777114
1624634333.355733,-2.1915642489112313e-09,-2.2904602290841719e-07,5.87,5.0,5.331242846295936e-06,4.959295620210469e-05,1.402438998222351,-0.01708984375,0.00537109375,3.223459390053099e-12,0.0011485215605197415,-7.495831514743303e-10,0.0010832368946759843,-0.11907521617637681,-0.11806132011777114
1624634333.355733,-2.1915642489112313e-09,-2.2904602290841719e-07,5.87,5.0,5.331242846295936e-06,4.959295620210469e-05,1.402438998222351,-0.01708984375,0.00537109375,3.223459390053099e-12,0.0011485215605197415,-7.495831514743303e-10,0.0010832368946759843,-0.11907521617637681,-0.11806132011777114
1624634333.4157329,-2.117197628995587e-09,-2.204809116705864e-07,5.87,5.0,5.331242846295936e-06,4.959295620210469e-05,1.402438998222351,-0.01708984375,0.00537109375,3.2388234366330942e-12,0.0013074266455390116,-7.391643823202739e-10,0.0011311301748798673,-0.11906861783276278,-0.11805331444717197
1624634333.4157329,-2.117197628995587e-09,-2.204809116705864e-07,5.87,5.0,5.331242846295936e-06,4.959295620210469e-05,1.402438998222351,-0.01708984375,0.00537109375,3.2388234366330942e-12,0.0013074266455390116,-7.391643823202739e-10,0.0011311301748798673,-0.11906861783276278,-0.11805331444717197
1624634333.4157329,-2.117197628995587e-09,-2.204809116705864e-07,5.87,5.0,5.331242846295936e-06,4.959295620210469e-05,1.402438998222351,-0.01708984375,0.00537109375,3.2388234366330942e-12,0.0013074266455390116,-7.391643823202739e-10,0.0011311301748798673,-0.11906861783276278,-0.11805331444717197
1624634333.4157329,-2.117197628995587e-09,-2.204809116705864e-07,5.87,5.0,5.331242846295936e-06,4.959295620210469e-05,1.402438998222351,-0.01708984375,0.00537109375,3.2388234366330942e-12,0.0013074266455390116,-7.391643823202739e-10,0.0011311301748798673,-0.11906861783276278,-0.11805331444717197
1624634333.4157329,-2.117197628995587e-09,-2.204809116705864e-07,5.87,5.0,5.331242846295936e-06,4.959295620210469e-05,1.402438998222351,-0.0107421875,0.00927734375,3.2388234366330942e-12,0.0013074266455390116,-7.391643823202739e-10,0.0011311301748798673,-0.11906861783276278,-0.11805331444717197
1624634333.475733,-2.042802342777504e-09,-2.1189148594796485e-07,5.87,5.0,5.331242846295936e-06,4.959295620210469e-05,1.402438998222351,-0.0107421875,0.00927734375,3.2056833168131152e-12,0.0012244475558810257,-7.241218084414339e-10,0.0011129601701373854,-0.11907116118101546,-0.11804821597486242
1624634333.475733,-2.042802342777504e-09,-2.1189148594796485e-07,5.87,5.0,5.331242846295936e-06,4.959295620210469e-05,1.402438998222351,-0.0107421875,0.00927734375,3.2056833168131152e-12,0.0012244475558810257,-7.241218084414339e-10,0.0011129601701373854,-0.11907116118101546,-0.11804821597486242
1624634333.475733,-2.042802342777504e-09,-2.1189148594796485e-07,5.87,5.0,5.331242846295936e-06,4.959295620210469e-05,1.402438998222351,-0.0107421875,0.00927734375,3.2056833168131152e-12,0.0012244475558810257,-7.241218084414339e-10,0.0011129601701373854,-0.11907116118101546,-0.11804821597486242
1624634333.475733,-2.042802342777504e-09,-2.1189148594796485e-07,5.87,5.0,5.331242846295936e-06,4.959295620210469e-05,1.402438998222351,-0.0107421875,0.00927734375,3.2056833168131152e-12,0.0012244475558810257,-7.241218084414339e-10,0.0011129601701373854,-0.11907116118101546,-0.11804821597486242
1624634333.475733,-2.042802342777504e-09,-2.1189148594796485e-07,5.87,4.99,5.331242846295936e-06,4.959295620210469e-05,1.402438998222351,-0.0107421875,0.00927734375,3.182953210838169e-12,0.0011948586945018437,-6.31261237746164e-10,0.0011150679952676758,-0.11906466363557683,-0.11809051988477309
1624634333.4817328,-1.9877341100556784e-09,-2.0557353923042524e-07,5.87,4.99,5.331242846295936e-06,4.959295620210469e-05,1.402438998222351,-0.0107421875,0.00927734375,3.182953210838169e-12,0.0011948586945018437,-6.31261237746164e-10,0.0011150679952676758,-0.11906466363557683,-0.11809051988477309
1624634333.4817328,-1.9877341100556784e-09,-2.0557353923042524e-07,5.87,4.99,5.331242846295936e-06,4.959295620210469e-05,1.402438998222351,-0.0107421875,0.00927734375,3.182953210838169e-12,0.0011948586945018437,-6.31261237746164e-10,0.0011150679952676758,-0.11906466363557683,-0.11809051988477309
1624634333.4817328,-1.9877341100556784e-09,-2.0557353923042524e-07,5.87,4.99,5.331242846295936e-06,4.959295620210469e-05,1.402438998222351,-0.0107421875,0.00927734375,3.182953210838169e-12,0.0011948586945018437,-6.31261237746164e-10,0.0011150679952676758,-0.11906466363557683,-0.11809051988477309
1624634333.4817328,-1.9877341100556784e-09,-2.0557353923042524e-07,5.87,4.99,5.331242846295936e-06,4.959295620210469e-05,1.3414634466171265,-0.0146484375,0.01025390625,3.182953210838169e-12,0.0011948586945018437,-6.31261237746164e-10,0.0011150679952676758,-0.11906466363557683,-0.11809051988477309
1624634333.4817328,-1.9877341100556784e-09,-2.0557353923042524e-07,5.87,4.99,5.331242846295936e-06,4.959295620210469e-05,1.3414634466171265,-0.0146484375,0.01025390625,3.182953210838169e-12,0.0011948586945018437,-6.31261237746164e-10,0.0011150679952676758,-0.11906466363557683,-0.11809051988477309
1624634333.565733,-1.922331604728349e-09,-1.98211478327419e-07,5.87,4.99,5.331242846295936e-06,4.959295620210469e-05,1.3414634466171265,-0.0146484375,0.01025390625,3.0675515276065122e-12,0.001208474184265168,-6.31261237746164e-10,0.0011150679952676758,-0.11903602841912653,-0.11809051988477309
1624634333.565733,-1.922331604728349e-09,-1.98211478327419e-07,5.87,4.99,5.331242846295936e-06,4.959295620210469e-05,1.3414634466171265,-0.0146484375,0.01025390625,3.0675515276065122e-12,0.001208474184265168,-6.733773962431374e-10,0.0011392059873337856,-0.11903602841912653,-0.11803202415652427
1624634333.565733,-1.922331604728349e-09,-1.98211478327419e-07,5.86,5.01,5.331242846295936e-06,4.959295620210469e-05,1.3414634466171265,-0.0146484375,0.01025390625,3.0675515276065122e-12,0.001208474184265168,-6.733773962431374e-10,0.0011392059873337856,-0.11903602841912653,-0.11803202415652427
1624634333.565733,-1.922331604728349e-09,-1.98211478327419e-07,5.86,5.01,5.331242846295936e-06,4.959295620210469e-05,1.3414634466171265,-0.0146484375,0.01025390625,3.0675515276065122e-12,0.001208474184265168,-6.733773962431374e-10,0.0011392059873337856,-0.11903602841912653,-0.11803202415652427
1624634333.565733,-1.922331604728349e-09,-1.98211478327419e-07,5.86,5.01,5.331242846295936e-06,4.959295620210469e-05,1.3414634466171265,-0.0146484375,0.01025390625,3.0675515276065122e-12,0.001208474184265168,-6.733773962431374e-10,0.0011392059873337856,-0.11903602841912653,-0.11803202415652427
1624634333.595733,-1.864029553074826e-09,-1.9140722120865235e-07,5.86,5.01,5.331242846295936e-06,4.959295620210469e-05,1.3414634466171265,-0.0146484375,0.01025390625,3.1241604307129864e-12,0.0011693066155031764,-6.198734548183774e-10,0.001117963396783325,-0.11907371910254093,-0.11805942435837576
1624634333.595733,-1.864029553074826e-09,-1.9140722120865235e-07,5.86,5.01,5.331242846295936e-06,4.959295620210469e-05,1.3414634466171265,-0.0146484375,0.01025390625,3.1241604307129864e-12,0.0011693066155031764,-6.198734548183774e-10,0.001117963396783325,-0.11907371910254093,-0.11805942435837576
1624634333.595733,-1.864029553074826e-09,-1.9140722120865235e-07,5.86,5.01,5.331242846295936e-06,4.959295620210469e-05,1.3414634466171265,-0.0146484375,0.01025390625,3.1241604307129864e-12,0.0011693066155031764,-6.198734548183774e-10,0.001117963396783325,-0.11907371910254093,-0.11805942435837576
1624634333.595733,-1.864029553074826e-09,-1.9140722120865235e-07,5.86,5.01,5.331242846295936e-06,4.959295620210469e-05,1.3414634466171265,-0.0146484375,0.01025390625,3.1241604307129864e-12,0.0011693066155031764,-6.198734548183774e-10,0.001117963396783325,-0.11907371910254093,-0.11805942435837576
1624634333.595733,-1.864029553074826e-09,-1.9140722120865235e-07,5.86,5.01,5.331242846295936e-06,4.959295620210469e-05,1.402438998222351,-0.00634765625,0.00146484375,3.1241604307129864e-12,0.0011693066155031764,-6.198734548183774e-10,0.001117963396783325,-0.11907371910254093,-0.11805942435837576
1624634333.669733,-1.8001034705703073e-09,-1.84038051622118e-07,5.86,5.01,5.331242846295936e-06,4.959295620210469e-05,1.402438998222351,-0.00634765625,0.00146484375,3.0422475333481015e-12,0.001241327475482543,-6.358107489946999e-10,0.0011464742109612309,-0.11905495886685187,-0.11802301608413979
1624634333.669733,-1.8001034705703073e-09,-1.84038051622118e-07,5.86,5.01,5.331242846295936e-06,4.959295620210469e-05,1.402438998222351,-0.00634765625,0.00146484375,3.0422475333481015e-12,0.001241327475482543,-6.358107489946999e-10,0.0011464742109612309,-0.11905495886685187,-0.11802301608413979
1624634333.669733,-1.8001034705703073e-09,-1.84038051622118e-07,5.86,5.01,5.331242846295936e-06,4.959295620210469e-05,1.402438998222351,-0.00634765625,0.00146484375,3.0422475333481015e-12,0.001241327475482543,-6.358107489946999e-10,0.0011464742109612309,-0.11905495886685187,-0.11802301608413979
1624634333.669733,-1.8001034705703073e-09,-1.84038051622118e-07,5.86,5.01,5.464523383125197e-06,5.0832779379561543e-05,1.402438998222351,-0.00634765625,0.00146484375,3.0422475333481015e-12,0.001241327475482543,-6.358107489946999e-10,0.0011464742109612309,-0.11905495886685187,-0.11802301608413979
1624634333.669733,-1.8001034705703073e-09,-1.84038051622118e-07,5.86,5.01,5.464523383125197e-06,5.0832779379561543e-05,1.402438998222351,-0.00634765625,0.00146484375,3.0422475333481015e-12,0.001241327475482543,-6.358107489946999e-10,0.0011464742109612309,-0.11905495886685187,-0.11802301608413979
1624634333.715733,-1.7398239601531768e-09,-1.7696889262392257e-07,5.86,5.01,5.464523383125197e-06,5.0832779379561543e-05,1.402438998222351,-0.00634765625,0.00146484375,3.0323127447183516e-12,0.0011809137390544143,-6.035927350964513e-10,0.0011204474012044307,-0.11907356786902851,-0.11803471681142047
1624634333.715733,-1.7398239601531768e-09,-1.7696889262392257e-07,5.86,5.01,5.464523383125197e-06,5.0832779379561543e-05,1.402438998222351,-0.00634765625,0.00146484375,3.0323127447183516e-12,0.0011809137390544143,-6.035927350964513e-10,0.0011204474012044307,-0.11907356786902851,-0.11803471681142047
1624634333.715733,-1.7398239601531768e-09,-1.7696889262392257e-07,5.86,5.01,5.464523383125197e-06,5.0832779379561543e-05,1.402438998222351,-0.00634765625,0.00146484375,3.0323127447183516e-12,0.0011809137390544143,-6.035927350964513e-10,0.0011204474012044307,-0.11907356786902851,-0.11803471681142047
1624634333.715733,-1.7398239601531768e-09,-1.7696889262392257e-07,5.86,5.01,5.331242846295936e-06,4.959295620210469e-05,1.402438998222351,-0.00634765625,0.00146484375,3.0323127447183516e-12,0.0011809137390544143,-6.035927350964513e-10,0.0011204474012044307,-0.11907356786902851,-0.11803471681142047
1624634333.715733,-1.7398239601531768e-09,-1.7696889262392257e-07,5.86,5.01,5.331242846295936e-06,4.959295620210469e-05,1.4634146690368652,-0.0078125,0.0078125,2.9587298454850816e-12,0.0011059375473129514,-6.035927350964513e-10,0.0011204474012044307,-0.11907643938467005,-0.11803471681142047
1624634333.775733,-1.6792777353070812e-09,-1.6986345057717784e-07,5.86,5.01,5.331242846295936e-06,4.959295620210469e-05,1.4634146690368652,-0.0078125,0.0078125,2.9587298454850816e-12,0.0011059375473129514,-5.923821822750595e-10,0.0010685522229113373,-0.11907643938467005,-0.1180342018803895
1624634333.775733,-1.6792777353070812e-09,-1.6986345057717784e-07,5.86,5.01,5.331242846295936e-06,4.959295620210469e-05,1.4634146690368652,-0.0078125,0.0078125,2.9587298454850816e-12,0.0011059375473129514,-5.923821822750595e-10,0.0010685522229113373,-0.11907643938467005,-0.1180342018803895
1624634333.775733,-1.6792777353070812e-09,-1.6986345057717784e-07,5.86,5.01,5.331242846295936e-06,4.959295620210469e-05,1.4634146690368652,-0.0078125,0.0078125,2.9587298454850816e-12,0.0011059375473129514,-5.923821822750595e-10,0.0010685522229113373,-0.11907643938467005,-0.1180342018803895
1624634333.775733,-1.6792777353070812e-09,-1.6986345057717784e-07,5.86,5.01,5.331242846295936e-06,4.959295620210469e-05,1.4634146690368652,-0.0078125,0.0078125,2.9587298454850816e-12,0.0011059375473129514,-5.923821822750595e-10,0.0010685522229113373,-0.11907643938467005,-0.1180342018803895
1624634333.775733,-1.6792777353070812e-09,-1.6986345057717784e-07,5.86,5.01,5.331242846295936e-06,4.959295620210469e-05,1.4634146690368652,-0.0078125,0.0078125,2.977165796130461e-12,0.001230659166713272,-5.923821822750595e-10,0.0010685522229113373,-0.11907260522533984,-0.1180342018803895
1624634333.775733,-1.6356665926198308e-09,-1.6474566121935612e-07,5.86,5.01,5.331242846295936e-06,4.959295620210469e-05,1.4634146690368652,-0.0078125,0.0078125,2.977165796130461e-12,0.001230659166713272,-5.091165845638764e-10,0.0010972360290686513,-0.11907260522533984,-0.11808853362114435
1624634333.775733,-1.6356665926198308e-09,-1.6474566121935612e-07,5.86,5.01,5.331242846295936e-06,4.959295620210469e-05,1.4634146690368652,-0.0078125,0.0078125,2.977165796130461e-12,0.001230659166713272,-5.091165845638764e-10,0.0010972360290686513,-0.11907260522533984,-0.11808853362114435
1624634333.775733,-1.6356665926198308e-09,-1.6474566121935612e-07,5.86,5.01,5.331242846295936e-06,4.959295620210469e-05,1.4634146690368652,-0.0078125,0.0078125,2.977165796130461e-12,0.001230659166713272,-5.091165845638764e-10,0.0010972360290686513,-0.11907260522533984,-0.11808853362114435
1624634333.775733,-1.6356665926198308e-09,-1.6474566121935612e-07,5.86,5.01,5.331242846295936e-06,4.959295620210469e-05,1.4634146690368652,-0.0078125,0.0078125,2.977165796130461e-12,0.001230659166713272,-5.091165845638764e-10,0.0010972360290686513,-0.11907260522533984,-0.11808853362114435
1624634333.775733,-1.6356665926198308e-09,-1.6474566121935612e-07,5.86,5.01,5.331242846295936e-06,4.959295620210469e-05,1.3414634466171265,-0.0068359375,-0.0009765625,2.977165796130461e-12,0.001230659166713272,-5.091165845638764e-10,0.0010972360290686513,-0.11907260522533984,-0.11808853362114435
1624634333.835733,-1.588301839952478e-09,-1.5918370395608676e-07,5.86,5.01,5.331242846295936e-06,4.959295620210469e-05,1.3414634466171265,-0.0068359375,-0.0009765625,2.8930890626088526e-12,0.0011533441829637988,-5.171029551085322e-10,0.001082472082185315,-0.11907476493401987,-0.11808045772580632
1624634333.835733,-1.588301839952478e-09,-1.5918370395608676e-07,5.86,5.01,5.331242846295936e-06,4.959295620210469e-05,1.3414634466171265,-0.0068359375,-0.0009765625,2.8930890626088526e-12,0.0011533441829637988,-5.171029551085322e-10,0.001082472082185315,-0.11907476493401987,-0.11808045772580632
1624634333.835733,-1.588301839952478e-09,-1.5918370395608676e-07,5.86,5.0,5.331242846295936e-06,4.959295620210469e-05,1.3414634466171265,-0.0068359375,-0.0009765625,2.8930890626088526e-12,0.0011533441829637988,-5.171029551085322e-10,0.001082472082185315,-0.11907476493401987,-0.11808045772580632
1624634333.835733,-1.588301839952478e-09,-1.5918370395608676e-07,5.86,5.0,5.331242846295936e-06,4.959295620210469e-05,1.3414634466171265,-0.0068359375,-0.0009765625,2.8930890626088526e-12,0.0011533441829637988,-5.171029551085322e-10,0.001082472082185315,-0.11907476493401987,-0.11808045772580632
1624634333.835733,-1.588301839952478e-09,-1.5918370395608676e-07,5.86,5.0,5.331242846295936e-06,4.959295620210469e-05,1.3414634466171265,-0.0068359375,-0.0009765625,2.8930890626088526e-12,0.0011533441829637988,-5.171029551085322e-10,0.001082472082185315,-0.11907476493401987,-0.11808045772580632
1624634333.8957329,-1.5385172971477563e-09,-1.533339497817237e-07,5.86,5.0,5.331242846295936e-06,4.959295620210469e-05,1.3414634466171265,-0.0068359375,-0.0009765625,2.8319391610310295e-12,0.0011337100535662135,-5.177300893831835e-10,0.0010659407322282692,-0.11907541204779183,-0.11807413072857521
1624634333.8957329,-1.5385172971477563e-09,-1.533339497817237e-07,5.86,5.0,5.331242846295936e-06,4.959295620210469e-05,1.3414634466171265,-0.0068359375,-0.0009765625,2.8319391610310295e-12,0.0011337100535662135,-5.177300893831835e-10,0.0010659407322282692,-0.11907541204779183,-0.11807413072857521
1624634333.8957329,-1.5385172971477563e-09,-1.533339497817237e-07,5.86,5.0,5.331242846295936e-06,4.959295620210469e-05,1.3414634466171265,-0.0068359375,-0.0009765625,2.8319391610310295e-12,0.0011337100535662135,-5.177300893831835e-10,0.0010659407322282692,-0.11907541204779183,-0.11807413072857521
1624634333.8957329,-1.5385172971477563e-09,-1.533339497817237e-07,5.86,5.0,5.331242846295936e-06,4.959295620210469e-05,1.3414634466171265,-0.0068359375,-0.0009765625,2.8319391610310295e-12,0.0011337100535662135,-5.177300893831835e-10,0.0010659407322282692,-0.11907541204779183,-0.11807413072857521
1624634333.8957329,-1.5385172971477563e-09,-1.533339497817237e-07,5.86,5.0,5.331242846295936e-06,4.959295620210469e-05,1.3414634466171265,-0.00927734375,0.0078125,2.8319391610310295e-12,0.0011337100535662135,-5.177300893831835e-10,0.0010659407322282692,-0.11907541204779183,-0.11807413072857521
1624634333.955733,-1.4874601280210571e-09,-1.4733253926204103e-07,5.86,5.0,5.331242846295936e-06,4.959295620210469e-05,1.3414634466171265,-0.00927734375,0.0078125,2.75218542919004e-12,0.0010620726864617332,-5.129176783038182e-10,0.0010193585850429808,-0.11907839555778944,-0.11807182415251358
1624634333.955733,-1.4874601280210571e-09,-1.4733253926204103e-07,5.86,5.0,5.331242846295936e-06,4.959295620210469e-05,1.3414634466171265,-0.00927734375,0.0078125,2.75218542919004e-12,0.0010620726864617332,-5.129176783038182e-10,0.0010193585850429808,-0.11907839555778944,-0.11807182415251358
1624634333.955733,-1.4874601280210571e-09,-1.4733253926204103e-07,5.87,5.01,5.331242846295936e-06,4.959295620210469e-05,1.3414634466171265,-0.00927734375,0.0078125,2.75218542919004e-12,0.0010620726864617332,-5.129176783038182e-10,0.0010193585850429808,-0.11907839555778944,-0.11807182415251358
1624634333.955733,-1.4874601280210571e-09,-1.4733253926204103e-07,5.87,5.01,5.331242846295936e-06,4.959295620210469e-05,1.3414634466171265,-0.00927734375,0.0078125,2.75218542919004e-12,0.0010620726864617332,-5.129176783038182e-10,0.0010193585850429808,-0.11907839555778944,-0.11807182415251358
1624634333.955733,-1.4874601280210571e-09,-1.4733253926204103e-07,5.87,5.01,5.331242846295936e-06,4.959295620210469e-05,1.3414634466171265,-0.00927734375,0.0078125,2.7032888234278067e-12,0.0011056699771955553,-5.129176783038182e-10,0.0010193585850429808,-0.119076860406938,-0.11807182415251358
1624634334.015733,-1.4360038812117566e-09,-1.4128246316954033e-07,5.87,5.01,5.331242846295936e-06,4.959295620210469e-05,1.3414634466171265,-0.00927734375,0.0078125,2.7032888234278067e-12,0.0011056699771955553,-5.041781758719781e-10,0.001008383515158272,-0.119076860406938,-0.11807077073547861
1624634334.015733,-1.4360038812117566e-09,-1.4128246316954033e-07,5.87,5.01,5.331242846295936e-06,4.959295620210469e-05,1.3414634466171265,-0.00927734375,0.0078125,2.7032888234278067e-12,0.0011056699771955553,-5.041781758719781e-10,0.001008383515158272,-0.119076860406938,-0.11807077073547861
1624634334.015733,-1.4360038812117566e-09,-1.4128246316954033e-07,5.87,5.01,5.331242846295936e-06,4.959295620210469e-05,1.3414634466171265,-0.00927734375,0.0078125,2.7032888234278067e-12,0.0011056699771955553,-5.041781758719781e-10,0.001008383515158272,-0.119076860406938,-0.11807077073547861
1624634334.015733,-1.4360038812117566e-09,-1.4128246316954033e-07,5.87,5.01,5.331242846295936e-06,4.959295620210469e-05,1.402438998222351,-0.00830078125,0.00244140625,2.7032888234278067e-12,0.0011056699771955553,-5.041781758719781e-10,0.001008383515158272,-0.119076860406938,-0.11807077073547861
1624634334.015733,-1.4360038812117566e-09,-1.4128246316954033e-07,5.87,5.01,5.331242846295936e-06,4.959295620210469e-05,1.402438998222351,-0.00830078125,0.00244140625,2.7032888234278067e-12,0.0011056699771955553,-5.041781758719781e-10,0.001008383515158272,-0.119076860406938,-0.11807077073547861
1624634334.075733,-1.3848354848320352e-09,-1.3526628067071634e-07,5.87,5.01,5.331242846295936e-06,4.959295620210469e-05,1.402438998222351,-0.00830078125,0.00244140625,2.625829247559981e-12,0.0010354951653657838,-5.041781758719781e-10,0.001008383515158272,-0.11907973208324164,-0.11807077073547861
1624634334.075733,-1.3848354848320352e-09,-1.3526628067071634e-07,5.87,5.01,5.331242846295936e-06,4.959295620210469e-05,1.402438998222351,-0.00830078125,0.00244140625,2.625829247559981e-12,0.0010354951653657838,-5.041781758719781e-10,0.001008383515158272,-0.11907973208324164,-0.11807077073547861
1624634334.075733,-1.3848354848320352e-09,-1.3526628067071634e-07,5.88,5.01,5.331242846295936e-06,4.959295620210469e-05,1.402438998222351,-0.00830078125,0.00244140625,2.625829247559981e-12,0.0010354951653657838,-5.041781758719781e-10,0.001008383515158272,-0.11907973208324164,-0.11807077073547861
1624634334.075733,-1.3848354848320352e-09,-1.3526628067071634e-07,5.88,5.01,5.331242846295936e-06,4.959295620210469e-05,1.402438998222351,-0.00830078125,0.00244140625,2.625829247559981e-12,0.0010354951653657838,-4.927592072345624e-10,0.0009654105944515883,-0.11907973208324164,-0.11807392614606159
1624634334.075733,-1.3848354848320352e-09,-1.3526628067071634e-07,5.88,5.01,5.331242846295936e-06,4.959295620210469e-05,1.402438998222351,-0.00830078125,0.00244140625,2.625829247559981e-12,0.0010354951653657838,-4.927592072345624e-10,0.0009654105944515883,-0.11907973208324164,-0.11807392614606159
1624634334.075733,-1.3481292127101177e-09,-1.3095048705095947e-07,5.88,5.01,5.331242846295936e-06,4.959295620210469e-05,1.402438998222351,-0.00830078125,0.00244140625,2.6141489465652827e-12,0.0009471138872957892,-4.927592072345624e-10,0.0009654105944515883,-0.11908247002724737,-0.11807392614606159
1624634334.075733,-1.3481292127101177e-09,-1.3095048705095947e-07,5.88,5.01,5.331242846295936e-06,4.959295620210469e-05,1.402438998222351,-0.00830078125,0.00244140625,2.6141489465652827e-12,0.0009471138872957892,-4.927592072345624e-10,0.0009654105944515883,-0.11908247002724737,-0.11807392614606159
1624634334.075733,-1.3481292127101177e-09,-1.3095048705095947e-07,5.88,5.01,5.331242846295936e-06,4.959295620210469e-05,1.402438998222351,-0.00830078125,0.00244140625,2.6141489465652827e-12,0.0009471138872957892,-4.927592072345624e-10,0.0009654105944515883,-0.11908247002724737,-0.11807392614606159
1624634334.075733,-1.3481292127101177e-09,-1.3095048705095947e-07,5.88,5.01,5.331242846295936e-06,4.959295620210469e-05,1.2804877758026123,-0.00537109375,0.0107421875,2.6141489465652827e-12,0.0009471138872957892,-4.2276013375826736e-10,0.0009292551989778367,-0.11908247002724737,-0.11813047838172047
1624634334.075733,-1.3481292127101177e-09,-1.3095048705095947e-07,5.88,5.01,5.331242846295936e-06,4.959295620210469e-05,1.2804877758026123,-0.00537109375,0.0107421875,2.4543290244226226e-12,0.0011720048216878492,-4.2276013375826736e-10,0.0009292551989778367,-0.11903979883561983,-0.11813047838172047
1624634334.169733,-1.3024800280750727e-09,-1.257891606054339e-07,5.88,5.01,5.331242846295936e-06,4.959295620210469e-05,1.2804877758026123,-0.00537109375,0.0107421875,2.4543290244226226e-12,0.0011720048216878492,-4.2276013375826736e-10,0.0009292551989778367,-0.11903979883561983,-0.11813047838172047
1624634334.169733,-1.3024800280750727e-09,-1.257891606054339e-07,5.88,5.01,5.331242846295936e-06,4.959295620210469e-05,1.2804877758026123,-0.00537109375,0.0107421875,2.4543290244226226e-12,0.0011720048216878492,-4.2276013375826736e-10,0.0009292551989778367,-0.11903979883561983,-0.11813047838172047
1624634334.169733,-1.3024800280750727e-09,-1.257891606054339e-07,5.88,5.0,5.331242846295936e-06,4.959295620210469e-05,1.2804877758026123,-0.00537109375,0.0107421875,2.4543290244226226e-12,0.0011720048216878492,-4.623093169529033e-10,0.001026508097418494,-0.11903979883561983,-0.11807090018151015
1624634334.169733,-1.3024800280750727e-09,-1.257891606054339e-07,5.88,5.0,5.331242846295936e-06,4.959295620210469e-05,1.2804877758026123,-0.00537109375,0.0107421875,2.4543290244226226e-12,0.0011720048216878492,-4.623093169529033e-10,0.001026508097418494,-0.11903979883561983,-0.11807090018151015
1624634334.169733,-1.3024800280750727e-09,-1.257891606054339e-07,5.88,5.0,5.331242846295936e-06,4.959295620210469e-05,1.2804877758026123,-0.00537109375,0.0107421875,2.4543290244226226e-12,0.0011720048216878492,-4.623093169529033e-10,0.001026508097418494,-0.11903979883561983,-0.11807090018151015
1624634334.195733,-1.262774468344368e-09,-1.2109182018299204e-07,5.88,5.0,5.331242846295936e-06,4.959295620210469e-05,1.2804877758026123,-0.00537109375,0.0107421875,2.4602969706733896e-12,0.0011387591102789115,-4.623093169529033e-10,0.001026508097418494,-0.11907776868741636,-0.11807090018151015
1624634334.195733,-1.262774468344368e-09,-1.2109182018299204e-07,5.88,5.0,5.2043083087482955e-06,4.8412170144729316e-05,1.2804877758026123,-0.00537109375,0.0107421875,2.4602969706733896e-12,0.0011387591102789115,-4.623093169529033e-10,0.001026508097418494,-0.11907776868741636,-0.11807090018151015
1624634334.195733,-1.262774468344368e-09,-1.2109182018299204e-07,5.88,5.0,5.2043083087482955e-06,4.8412170144729316e-05,1.2804877758026123,-0.00537109375,0.0107421875,2.4602969706733896e-12,0.0011387591102789115,-4.2042187579414396e-10,0.0010358421519529113,-0.11907776868741636,-0.11810164921174016
1624634334.195733,-1.262774468344368e-09,-1.2109182018299204e-07,5.88,5.0,5.2043083087482955e-06,4.8412170144729316e-05,1.2804877758026123,-0.0087890625,0.00439453125,2.4602969706733896e-12,0.0011387591102789115,-4.2042187579414396e-10,0.0010358421519529113,-0.11907776868741636,-0.11810164921174016
1624634334.195733,-1.262774468344368e-09,-1.2109182018299204e-07,5.88,5.0,5.2043083087482955e-06,4.8412170144729316e-05,1.2804877758026123,-0.0087890625,0.00439453125,2.3670248181025946e-12,0.0012745453239071994,-4.2042187579414396e-10,0.0010358421519529113,-0.11905026846746596,-0.11810164921174016
1624634334.273733,-1.2186386698272813e-09,-1.1598526167390012e-07,5.88,5.0,5.2043083087482955e-06,4.8412170144729316e-05,1.2804877758026123,-0.0087890625,0.00439453125,2.3670248181025946e-12,0.0012745453239071994,-4.2042187579414396e-10,0.0010358421519529113,-0.11905026846746596,-0.11810164921174016
1624634334.273733,-1.2186386698272813e-09,-1.1598526167390012e-07,5.88,5.0,5.2043083087482955e-06,4.8412170144729316e-05,1.2804877758026123,-0.0087890625,0.00439453125,2.3670248181025946e-12,0.0012745453239071994,-4.3460100017830223e-10,0.0011198771007548927,-0.11905026846746596,-0.11805915423606043
1624634334.273733,-1.2186386698272813e-09,-1.1598526167390012e-07,5.88,5.0,5.464523383125197e-06,5.0832779379561543e-05,1.2804877758026123,-0.0087890625,0.00439453125,2.3670248181025946e-12,0.0012745453239071994,-4.3460100017830223e-10,0.0011198771007548927,-0.11905026846746596,-0.11805915423606043
1624634334.273733,-1.2186386698272813e-09,-1.1598526167390012e-07,5.88,5.0,5.464523383125197e-06,5.0832779379561543e-05,1.2804877758026123,-0.0087890625,0.00439453125,2.3670248181025946e-12,0.0012745453239071994,-4.3460100017830223e-10,0.0011198771007548927,-0.11905026846746596,-0.11805915423606043
1624634334.315733,-1.1779173662449417e-09,-1.1116508569269332e-07,5.88,5.0,5.464523383125197e-06,5.0832779379561543e-05,1.2804877758026123,-0.0087890625,0.00439453125,2.3609712300741877e-12,0.0012176132671203265,-4.3460100017830223e-10,0.0011198771007548927,-0.11907291484762018,-0.11805915423606043
1624634334.315733,-1.1779173662449417e-09,-1.1116508569269332e-07,5.88,5.0,5.464523383125197e-06,5.0832779379561543e-05,1.2804877758026123,-0.0087890625,0.00439453125,2.3609712300741877e-12,0.0012176132671203265,-4.3460100017830223e-10,0.0011198771007548927,-0.11907291484762018,-0.11805915423606043
1624634334.315733,-1.1779173662449417e-09,-1.1116508569269332e-07,5.88,5.0,5.464523383125197e-06,5.0832779379561543e-05,1.2804877758026123,-0.0087890625,0.00439453125,2.3609712300741877e-12,0.0012176132671203265,-4.0801430786805063e-10,0.0011182808214258483,-0.11907291484762018,-0.11807288925716553
1624634334.315733,-1.1779173662449417e-09,-1.1116508569269332e-07,5.88,5.0,5.464523383125197e-06,5.0832779379561543e-05,1.2804877758026123,-0.0087890625,0.00439453125,2.3609712300741877e-12,0.0012176132671203265,-4.0801430786805063e-10,0.0011182808214258483,-0.11907291484762018,-0.11807288925716553
1624634334.315733,-1.1779173662449417e-09,-1.1116508569269332e-07,5.88,5.0,5.331242846295936e-06,4.959295620210469e-05,1.2804877758026123,-0.0087890625,0.00439453125,2.3609712300741877e-12,0.0012176132671203265,-4.0801430786805063e-10,0.0011182808214258483,-0.11907291484762018,-0.11807288925716553
1624634334.375733,-1.136996567476775e-09,-1.063319466113545e-07,5.88,5.0,5.331242846295936e-06,4.959295620210469e-05,1.3414634466171265,-0.01220703125,0.0009765625,2.3054593405892007e-12,0.0011403255604668027,-4.0801430786805063e-10,0.0011182808214258483,-0.1190752512378605,-0.11807288925716553
1624634334.375733,-1.136996567476775e-09,-1.063319466113545e-07,5.88,5.0,5.331242846295936e-06,4.959295620210469e-05,1.3414634466171265,-0.01220703125,0.0009765625,2.3054593405892007e-12,0.0011403255604668027,-4.0801430786805063e-10,0.0011182808214258483,-0.1190752512378605,-0.11807288925716553
1624634334.375733,-1.136996567476775e-09,-1.063319466113545e-07,5.88,5.01,5.331242846295936e-06,4.959295620210469e-05,1.3414634466171265,-0.01220703125,0.0009765625,2.3054593405892007e-12,0.0011403255604668027,-4.0050712718674336e-10,0.0010805589102121866,-0.1190752512378605,-0.11806958695507844
1624634334.375733,-1.136996567476775e-09,-1.063319466113545e-07,5.88,5.01,5.331242846295936e-06,4.959295620210469e-05,1.3414634466171265,-0.01220703125,0.0009765625,2.3054593405892007e-12,0.0011403255604668027,-4.0050712718674336e-10,0.0010805589102121866,-0.1190752512378605,-0.11806958695507844
1624634334.375733,-1.136996567476775e-09,-1.063319466113545e-07,5.88,5.01,5.331242846295936e-06,4.959295620210469e-05,1.3414634466171265,-0.01220703125,0.0009765625,2.3054593405892007e-12,0.0011403255604668027,-4.0050712718674336e-10,0.0010805589102121866,-0.1190752512378605,-0.11806958695507844
1624634334.377733,-1.1072263156396833e-09,-1.0282598380279816e-07,5.88,5.01,5.331242846295936e-06,4.959295620210469e-05,1.3414634466171265,-0.01220703125,0.0009765625,2.332182391529805e-12,0.0014059336505975997,-4.0050712718674336e-10,0.0010805589102121866,-0.11906422639992534,-0.11806958695507844
1624634334.377733,-1.1072263156396833e-09,-1.0282598380279816e-07,5.88,5.01,5.331242846295936e-06,4.959295620210469e-05,1.3414634466171265,-0.01220703125,0.0009765625,2.332182391529805e-12,0.0014059336505975997,-4.0050712718674336e-10,0.0010805589102121866,-0.11906422639992534,-0.11806958695507844
1624634334.377733,-1.1072263156396833e-09,-1.0282598380279816e-07,5.88,5.01,5.331242846295936e-06,4.959295620210469e-05,1.3414634466171265,-0.01220703125,0.0009765625,2.332182391529805e-12,0.0014059336505975997,-3.4591348466519644e-10,0.0011682025455439088,-0.11906422639992534,-0.11811398287952662
1624634334.377733,-1.1072263156396833e-09,-1.0282598380279816e-07,5.88,5.01,5.331242846295936e-06,4.959295620210469e-05,1.3414634466171265,-0.01220703125,0.0009765625,2.332182391529805e-12,0.0014059336505975997,-3.4591348466519644e-10,0.0011682025455439088,-0.11906422639992534,-0.11811398287952662
1624634334.377733,-1.1072263156396833e-09,-1.0282598380279816e-07,5.88,5.01,5.331242846295936e-06,4.959295620210469e-05,1.3414634466171265,-0.01220703125,0.0009765625,2.332182391529805e-12,0.0014059336505975997,-3.4591348466519644e-10,0.0011682025455439088,-0.11906422639992534,-0.11811398287952662
1624634334.4357328,-1.0752653702397502e-09,-9.905982835610018e-08,5.88,5.01,5.331242846295936e-06,4.959295620210469e-05,1.5243902206420898,-0.0029296875,0.0146484375,2.290776576047272e-12,0.0013204698924881664,-3.4591348466519644e-10,0.0011682025455439088,-0.119067866204544,-0.11811398287952662
1624634334.4357328,-1.0752653702397502e-09,-9.905982835610018e-08,5.88,5.01,5.464523383125197e-06,5.0832779379561543e-05,1.5243902206420898,-0.0029296875,0.0146484375,2.290776576047272e-12,0.0013204698924881664,-3.4591348466519644e-10,0.0011682025455439088,-0.119067866204544,-0.11811398287952662
1624634334.4357328,-1.0752653702397502e-09,-9.905982835610018e-08,5.88,5.01,5.464523383125197e-06,5.0832779379561543e-05,1.5243902206420898,-0.0029296875,0.0146484375,2.290776576047272e-12,0.0013204698924881664,-3.492718930063017e-10,0.0011868162943098125,-0.119067866204544,-0.11810068167770474
1624634334.4357328,-1.0752653702397502e-09,-9.905982835610018e-08,5.87,5.0,5.464523383125197e-06,5.0832779379561543e-05,1.5243902206420898,-0.0029296875,0.0146484375,2.290776576047272e-12,0.0013204698924881664,-3.492718930063017e-10,0.0011868162943098125,-0.119067866204544,-0.11810068167770474
1624634334.4357328,-1.0752653702397502e-09,-9.905982835610018e-08,5.87,5.0,5.464523383125197e-06,5.0832779379561543e-05,1.5243902206420898,-0.0029296875,0.0146484375,2.290776576047272e-12,0.0013204698924881664,-3.492718930063017e-10,0.0011868162943098125,-0.119067866204544,-0.11810068167770474
1624634334.495733,-1.0416398431386633e-09,-9.510793453891351e-08,5.87,5.0,5.464523383125197e-06,5.0832779379561543e-05,1.5243902206420898,-0.0029296875,0.0146484375,2.2884100777707574e-12,0.0014663934278028653,-3.492718930063017e-10,0.0011868162943098125,-0.11906230737601942,-0.11810068167770474
1624634334.495733,-1.0416398431386633e-09,-9.510793453891351e-08,5.87,5.0,5.464523383125197e-06,5.0832779379561543e-05,1.5243902206420898,-0.0029296875,0.0146484375,2.2884100777707574e-12,0.0014663934278028653,-3.492718930063017e-10,0.0011868162943098125,-0.11906230737601942,-0.11810068167770474
1624634334.495733,-1.0416398431386633e-09,-9.510793453891351e-08,5.87,5.0,5.2043083087482955e-06,4.8412170144729316e-05,1.5243902206420898,-0.0029296875,0.0146484375,2.2884100777707574e-12,0.0014663934278028653,-3.4982560500441325e-10,0.001268130523652996,-0.11906230737601942,-0.11808071710597802
1624634334.495733,-1.0416398431386633e-09,-9.510793453891351e-08,5.87,5.0,5.2043083087482955e-06,4.8412170144729316e-05,1.5243902206420898,-0.0029296875,0.0146484375,2.2884100777707574e-12,0.0014663934278028653,-3.4982560500441325e-10,0.001268130523652996,-0.11906230737601942,-0.11808071710597802
1624634334.495733,-1.0416398431386633e-09,-9.510793453891351e-08,5.87,5.0,5.2043083087482955e-06,4.8412170144729316e-05,1.402438998222351,-0.01123046875,0.001953125,2.2884100777707574e-12,0.0014663934278028653,-3.4982560500441325e-10,0.001268130523652996,-0.11906230737601942,-0.11808071710597802
1624634334.565733,-1.005713717852482e-09,-9.094947817840953e-08,5.87,5.0,5.2043083087482955e-06,4.8412170144729316e-05,1.402438998222351,-0.01123046875,0.001953125,2.230865247974944e-12,0.0012957483916392182,-3.4982560500441325e-10,0.001268130523652996,-0.11905336043207414,-0.11808071710597802
1624634334.565733,-1.005713717852482e-09,-9.094947817840953e-08,5.87,5.0,5.2043083087482955e-06,4.8412170144729316e-05,1.402438998222351,-0.01123046875,0.001953125,2.230865247974944e-12,0.0012957483916392182,-3.4982560500441325e-10,0.001268130523652996,-0.11905336043207414,-0.11808071710597802
1624634334.565733,-1.005713717852482e-09,-9.094947817840953e-08,5.87,4.99,5.331242846295936e-06,4.959295620210469e-05,1.402438998222351,-0.01123046875,0.001953125,2.230865247974944e-12,0.0012957483916392182,-3.5430791438644804e-10,0.0012498865603036155,-0.11905336043207414,-0.11804259488745757
1624634334.565733,-1.005713717852482e-09,-9.094947817840953e-08,5.87,4.99,5.331242846295936e-06,4.959295620210469e-05,1.402438998222351,-0.01123046875,0.001953125,2.230865247974944e-12,0.0012957483916392182,-3.5430791438644804e-10,0.0012498865603036155,-0.11905336043207414,-0.11804259488745757
1624634334.565733,-1.005713717852482e-09,-9.094947817840953e-08,5.87,4.99,5.331242846295936e-06,4.959295620210469e-05,1.402438998222351,-0.01123046875,0.001953125,2.230865247974944e-12,0.0012957483916392182,-3.5430791438644804e-10,0.0012498865603036155,-0.11905336043207414,-0.11804259488745757
1624634334.615733,-9.713398826073016e-10,-8.692307292433303e-08,5.87,4.99,5.331242846295936e-06,4.959295620210469e-05,1.402438998222351,-0.01123046875,0.001953125,2.214995934192826e-12,0.0012276359169291445,-3.5430791438644804e-10,0.0012498865603036155,-0.11906976938602201,-0.11804259488745757
1624634334.615733,-9.713398826073016e-10,-8.692307292433303e-08,5.87,4.99,5.331242846295936e-06,4.959295620210469e-05,1.402438998222351,-0.01123046875,0.001953125,2.214995934192826e-12,0.0012276359169291445,-3.3908703998220384e-10,0.0012012429941375383,-0.11906976938602201,-0.11804451273563399
1624634334.615733,-9.713398826073016e-10,-8.692307292433303e-08,5.87,4.99,5.331242846295936e-06,4.959295620210469e-05,1.402438998222351,-0.01123046875,0.001953125,2.214995934192826e-12,0.0012276359169291445,-3.3908703998220384e-10,0.0012012429941375383,-0.11906976938602201,-0.11804451273563399
1624634334.615733,-9.713398826073016e-10,-8.692307292433303e-08,5.87,4.99,5.331242846295936e-06,4.959295620210469e-05,1.402438998222351,-0.01123046875,0.001953125,2.214995934192826e-12,0.0012276359169291445,-3.3908703998220384e-10,0.0012012429941375383,-0.11906976938602201,-0.11804451273563399
1624634334.615733,-9.713398826073016e-10,-8.692307292433303e-08,5.87,4.99,5.331242846295936e-06,4.959295620210469e-05,1.402438998222351,-0.01123046875,0.009765625,2.214995934192826e-12,0.0012276359169291445,-3.3908703998220384e-10,0.0012012429941375383,-0.11906976938602201,-0.11804451273563399
1624634334.6757329,-9.370344550549324e-10,-8.291744959146316e-08,5.87,4.99,5.331242846295936e-06,4.959295620210469e-05,1.402438998222351,-0.01123046875,0.009765625,2.1554340411382487e-12,0.0011498346898156948,-3.3908703998220384e-10,0.0012012429941375383,-0.1190736200293685,-0.11804451273563399
1624634334.6757329,-9.370344550549324e-10,-8.291744959146316e-08,5.87,4.99,5.331242846295936e-06,4.959295620210469e-05,1.402438998222351,-0.01123046875,0.009765625,2.1554340411382487e-12,0.0011498346898156948,-3.3908703998220384e-10,0.0012012429941375383,-0.1190736200293685,-0.11804451273563399
1624634334.6757329,-9.370344550549324e-10,-8.291744959146316e-08,5.87,4.99,5.331242846295936e-06,4.959295620210469e-05,1.402438998222351,-0.01123046875,0.009765625,2.1554340411382487e-12,0.0011498346898156948,-3.3191687889220636e-10,0.001136055585794077,-0.1190736200293685,-0.11803913784365662
1624634334.6757329,-9.370344550549324e-10,-8.291744959146316e-08,5.87,4.99,5.331242846295936e-06,4.959295620210469e-05,1.402438998222351,-0.01123046875,0.009765625,2.1554340411382487e-12,0.0011498346898156948,-3.3191687889220636e-10,0.001136055585794077,-0.1190736200293685,-0.11803913784365662
1624634334.6757329,-9.370344550549324e-10,-8.291744959146316e-08,5.87,4.99,5.331242846295936e-06,4.959295620210469e-05,1.402438998222351,-0.01123046875,0.009765625,2.1554340411382487e-12,0.0011498346898156948,-3.3191687889220636e-10,0.001136055585794077,-0.1190736200293685,-0.11803913784365662
1624634334.6757329,-9.123842976286382e-10,-8.003959028051574e-08,5.87,4.99,5.331242846295936e-06,4.959295620210469e-05,1.402438998222351,-0.01123046875,0.009765625,2.194361840580354e-12,0.0015317981831277855,-3.3191687889220636e-10,0.001136055585794077,-0.11906206470621049,-0.11803913784365662
1624634334.6757329,-9.123842976286382e-10,-8.003959028051574e-08,5.87,4.99,5.331242846295936e-06,4.959295620210469e-05,1.402438998222351,-0.01123046875,0.009765625,2.194361840580354e-12,0.0015317981831277855,-3.3191687889220636e-10,0.001136055585794077,-0.11906206470621049,-0.11803913784365662
1624634334.6757329,-9.123842976286382e-10,-8.003959028051574e-08,5.87,4.99,5.331242846295936e-06,4.959295620210469e-05,1.402438998222351,-0.01123046875,0.009765625,2.194361840580354e-12,0.0015317981831277855,-3.3191687889220636e-10,0.001136055585794077,-0.11906206470621049,-0.11803913784365662
1624634334.6757329,-9.123842976286382e-10,-8.003959028051574e-08,5.87,4.99,5.331242846295936e-06,4.959295620210469e-05,1.402438998222351,-0.01318359375,0.00048828125,2.194361840580354e-12,0.0015317981831277855,-3.3191687889220636e-10,0.001136055585794077,-0.11906206470621049,-0.11803913784365662
1624634334.6757329,-9.123842976286382e-10,-8.003959028051574e-08,5.87,4.99,5.331242846295936e-06,4.959295620210469e-05,1.402438998222351,-0.01318359375,0.00048828125,2.194361840580354e-12,0.0015317981831277855,-2.8488772426456875e-10,0.0012461934141839567,-0.11906206470621049,-0.11808690869307444
1624634334.773733,-8.811585936323137e-10,-7.658826044332271e-08,5.87,4.99,5.331242846295936e-06,4.959295620210469e-05,1.402438998222351,-0.01318359375,0.00048828125,2.0939708149393866e-12,0.0017469627327755721,-2.8488772426456875e-10,0.0012461934141839567,-0.1189891754618228,-0.11808690869307444
1624634334.773733,-8.811585936323137e-10,-7.658826044332271e-08,5.87,4.99,5.331242846295936e-06,4.959295620210469e-05,1.402438998222351,-0.01318359375,0.00048828125,2.0939708149393866e-12,0.0017469627327755721,-2.8488772426456875e-10,0.0012461934141839567,-0.1189891754618228,-0.11808690869307444
1624634334.773733,-8.811585936323137e-10,-7.658826044332271e-08,5.87,4.99,5.331242846295936e-06,4.959295620210469e-05,1.402438998222351,-0.01318359375,0.00048828125,2.0939708149393866e-12,0.0017469627327755721,-2.8488772426456875e-10,0.0012461934141839567,-0.1189891754618228,-0.11808690869307444
1624634334.773733,-8.811585936323137e-10,-7.658826044332271e-08,5.87,4.99,5.331242846295936e-06,4.959295620210469e-05,1.402438998222351,-0.01318359375,0.00048828125,2.0939708149393866e-12,0.0017469627327755721,-2.8488772426456875e-10,0.0012461934141839567,-0.1189891754618228,-0.11808690869307444
1624634334.773733,-8.811585936323137e-10,-7.658826044332271e-08,5.87,4.99,5.331242846295936e-06,4.959295620210469e-05,1.402438998222351,-0.01318359375,0.00048828125,2.1626153058243997e-12,0.0017042920269392172,-3.146228952969268e-10,0.0014667183495995714,-0.11905217992437851,-0.11798485364959428
1624634334.795733,-8.545285499552815e-10,-7.347543316392263e-08,5.87,4.99,5.331242846295936e-06,4.959295620210469e-05,1.402438998222351,-0.01318359375,0.00048828125,2.1626153058243997e-12,0.0017042920269392172,-3.146228952969268e-10,0.0014667183495995714,-0.11905217992437851,-0.11798485364959428
1624634334.795733,-8.545285499552815e-10,-7.347543316392263e-08,5.87,4.99,5.331242846295936e-06,4.959295620210469e-05,1.402438998222351,-0.01318359375,0.00048828125,2.1626153058243997e-12,0.0017042920269392172,-2.831619981953752e-10,0.001518328595501629,-0.11905217992437851,-0.11801101647791534
1624634334.795733,-8.545285499552815e-10,-7.347543316392263e-08,5.87,4.99,5.331242846295936e-06,4.959295620210469e-05,1.402438998222351,-0.01318359375,0.00048828125,2.1626153058243997e-12,0.0017042920269392172,-2.831619981953752e-10,0.001518328595501629,-0.11905217992437851,-0.11801101647791534
1624634334.795733,-8.545285499552815e-10,-7.347543316392263e-08,5.87,4.99,5.331242846295936e-06,4.959295620210469e-05,1.402438998222351,-0.01318359375,0.00048828125,2.1626153058243997e-12,0.0017042920269392172,-2.831619981953752e-10,0.001518328595501629,-0.11905217992437851,-0.11801101647791534
1624634334.795733,-8.545285499552815e-10,-7.347543316392263e-08,5.87,4.99,5.331242846295936e-06,4.959295620210469e-05,1.402438998222351,-0.0126953125,0.0009765625,2.1626153058243997e-12,0.0017042920269392172,-2.831619981953752e-10,0.001518328595501629,-0.11905217992437851,-0.11801101647791534
1624634334.855733,-8.269168689260138e-10,-7.026419856423573e-08,5.87,4.99,5.331242846295936e-06,4.959295620210469e-05,1.402438998222351,-0.0126953125,0.0009765625,2.1498316948606874e-12,0.0015967206308589914,-2.831619981953752e-10,0.001518328595501629,-0.11905418010906435,-0.11801101647791534
1624634334.855733,-8.269168689260138e-10,-7.026419856423573e-08,5.87,4.99,5.331242846295936e-06,4.959295620210469e-05,1.402438998222351,-0.0126953125,0.0009765625,2.1498316948606874e-12,0.0015967206308589914,-2.831619981953752e-10,0.001518328595501629,-0.11905418010906435,-0.11801101647791534
1624634334.855733,-8.269168689260138e-10,-7.026419856423573e-08,5.87,4.98,5.331242846295936e-06,4.959295620210469e-05,1.402438998222351,-0.0126953125,0.0009765625,2.1498316948606874e-12,0.0015967206308589914,-2.831619981953752e-10,0.001518328595501629,-0.11905418010906435,-0.11801101647791534
1624634334.855733,-8.269168689260138e-10,-7.026419856423573e-08,5.87,4.98,5.331242846295936e-06,4.959295620210469e-05,1.402438998222351,-0.0126953125,0.0009765625,2.1498316948606874e-12,0.0015967206308589914,-2.831619981953752e-10,0.001518328595501629,-0.11905418010906435,-0.11801101647791534
1624634334.855733,-8.269168689260138e-10,-7.026419856423573e-08,5.87,4.98,5.331242846295936e-06,4.959295620210469e-05,1.402438998222351,-0.0126953125,0.0009765625,2.187585883242059e-12,0.001794105228011037,-2.8176423204607177e-10,0.0015039891649290702,-0.11904564726907702,-0.11798414068016864
1624634334.9157329,-7.988595783046487e-10,-6.701739969700027e-08,5.87,4.98,5.331242846295936e-06,4.959295620210469e-05,1.402438998222351,-0.0126953125,0.0009765625,2.187585883242059e-12,0.001794105228011037,-2.8176423204607177e-10,0.0015039891649290702,-0.11904564726907702,-0.11798414068016864
1624634334.9157329,-7.988595783046487e-10,-6.701739969700027e-08,5.87,4.98,5.331242846295936e-06,4.959295620210469e-05,1.402438998222351,-0.0126953125,0.0009765625,2.187585883242059e-12,0.001794105228011037,-2.8176423204607177e-10,0.0015039891649290702,-0.11904564726907702,-0.11798414068016864
1624634334.9157329,-7.988595783046487e-10,-6.701739969700027e-08,5.87,4.98,5.331242846295936e-06,4.959295620210469e-05,1.402438998222351,-0.0126953125,0.0009765625,2.187585883242059e-12,0.001794105228011037,-2.8176423204607177e-10,0.0015039891649290702,-0.11904564726907702,-0.11798414068016864
1624634334.9157329,-7.988595783046487e-10,-6.701739969700027e-08,5.87,4.98,5.331242846295936e-06,4.959295620210469e-05,1.2804877758026123,-0.01513671875,0.00341796875,2.187585883242059e-12,0.001794105228011037,-2.8176423204607177e-10,0.0015039891649290702,-0.11904564726907702,-0.11798414068016864
1624634334.9157329,-7.988595783046487e-10,-6.701739969700027e-08,5.87,4.98,5.331242846295936e-06,4.959295620210469e-05,1.2804877758026123,-0.01513671875,0.00341796875,2.187585883242059e-12,0.001794105228011037,-2.778524077200766e-10,0.0015754338901390916,-0.11904564726907702,-0.11795382288830078
1624634334.975733,0.002015844939546843,-6.360230026388122e-08,5.87,4.98,5.331242846295936e-06,4.959295620210469e-05,1.2804877758026123,-0.01513671875,0.00341796875,0.023551181129452137,0.0016802385380711453,-2.778524077200766e-10,0.0015754338901390916,-0.11904913427288097,-0.11795382288830078
1624634334.975733,0.002015844939546843,-6.360230026388122e-08,5.88,4.98,5.331242846295936e-06,4.959295620210469e-05,1.2804877758026123,-0.01513671875,0.00341796875,0.023551181129452137,0.0016802385380711453,-2.778524077200766e-10,0.0015754338901390916,-0.11904913427288097,-0.11795382288830078
1624634334.975733,0.002015844939546843,-6.360230026388122e-08,5.88,4.98,5.331242846295936e-06,4.959295620210469e-05,1.2804877758026123,-0.01513671875,0.00341796875,0.023551181129452137,0.0016802385380711453,-2.778524077200766e-10,0.0015754338901390916,-0.11904913427288097,-0.11795382288830078
1624634334.975733,0.002015844939546843,-6.360230026388122e-08,5.88,4.98,5.331242846295936e-06,4.959295620210469e-05,1.2804877758026123,-0.01513671875,0.00341796875,0.023551181129452137,0.0016802385380711453,0.0038489337505470847,0.0015564180916147548,-0.11904913427288097,-0.11792805179936576
1624634334.975733,0.002015844939546843,-6.360230026388122e-08,5.88,4.98,0.014064284041523933,0.1308305561542511,1.2804877758026123,-0.01513671875,0.00341796875,0.02583806057871976,0.0018851499875017998,0.0038489337505470847,0.0015564180916147548,-0.11903133453869734,-0.11792805179936576
1624634334.9817328,0.0036527007611768946,-6.10994194670872e-08,5.88,4.98,0.014064284041523933,0.1308305561542511,1.2804877758026123,-0.01513671875,0.00341796875,0.02583806057871976,0.0018851499875017998,0.0038489337505470847,0.0015564180916147548,-0.11903133453869734,-0.11792805179936576
1624634334.9817328,0.0036527007611768946,-6.10994194670872e-08,5.88,4.98,0.014064284041523933,0.1308305561542511,1.2804877758026123,-0.01513671875,0.00341796875,0.02583806057871976,0.0018851499875017998,0.0038489337505470847,0.0015564180916147548,-0.11903133453869734,-0.11792805179936576
1624634334.9817328,0.0036527007611768946,-6.10994194670872e-08,5.88,4.98,0.014064284041523933,0.1308305561542511,1.2804877758026123,-0.01513671875,0.00341796875,0.02583806057871976,0.0018851499875017998,0.0038489337505470847,0.0015564180916147548,-0.11903133453869734,-0.11792805179936576
1624634334.9817328,0.0036527007611768946,-6.10994194670872e-08,5.88,4.98,0.014064284041523933,0.1308305561542511,0.8536585569381714,-0.0576171875,-0.0107421875,0.02583806057871976,0.0018851499875017998,0.0038489337505470847,0.0015564180916147548,-0.11903133453869734,-0.11792805179936576
1624634334.9817328,0.0036527007611768946,-6.10994194670872e-08,5.88,4.98,0.014064284041523933,0.1308305561542511,0.8536585569381714,-0.0576171875,-0.0107421875,0.055959708750007775,0.012013788137346694,0.006984914490834807,0.0016461039655433685,-0.11658041952038489,-0.11796607237465795
1624634335.065733,0.0076259448638560925,-9.511131574652378e-08,5.88,4.98,0.07388168573379517,0.020120270550251007,0.8536585569381714,-0.0576171875,-0.0107421875,0.055959708750007775,0.012013788137346694,0.006984914490834807,0.0016461039655433685,-0.11658041952038489,-0.11796607237465795
1624634335.065733,0.0076259448638560925,-9.511131574652378e-08,5.87,5.0,0.07388168573379517,0.020120270550251007,0.8536585569381714,-0.0576171875,-0.0107421875,0.055959708750007775,0.012013788137346694,0.006984914490834807,0.0016461039655433685,-0.11658041952038489,-0.11796607237465795
1624634335.065733,0.0076259448638560925,-9.511131574652378e-08,5.87,5.0,0.07388168573379517,0.020120270550251007,0.8536585569381714,-0.0576171875,-0.0107421875,0.055959708750007775,0.012013788137346694,0.006984914490834807,0.0016461039655433685,-0.11658041952038489,-0.11796607237465795
1624634335.065733,0.0076259448638560925,-9.511131574652378e-08,5.87,5.0,0.07388168573379517,0.020120270550251007,0.8536585569381714,-0.0576171875,-0.0107421875,0.055959708750007775,0.012013788137346694,0.014875293414555601,0.006724016946740018,-0.11658041952038489,-0.11746358785432182
1624634335.065733,0.0076259448638560925,-9.511131574652378e-08,5.87,5.0,0.07388168573379517,0.020120270550251007,0.8536585569381714,-0.0576171875,-0.0107421875,0.06615089145080728,0.011856187582243799,0.014875293414555601,0.006724016946740018,-0.11115880962983733,-0.11746358785432182
1624634335.095733,0.011680670944499549,6.947455413104145e-07,5.87,5.0,0.07388168573379517,0.020120270550251007,0.8536585569381714,-0.0576171875,-0.0107421875,0.06615089145080728,0.011856187582243799,0.014875293414555601,0.006724016946740018,-0.11115880962983733,-0.11746358785432182
1624634335.095733,0.011680670944499549,6.947455413104145e-07,5.87,5.0,0.1689065545797348,-0.06320607662200928,0.8536585569381714,-0.0576171875,-0.0107421875,0.06615089145080728,0.011856187582243799,0.014875293414555601,0.006724016946740018,-0.11115880962983733,-0.11746358785432182
1624634335.095733,0.011680670944499549,6.947455413104145e-07,5.87,5.0,0.1689065545797348,-0.06320607662200928,0.8536585569381714,-0.0576171875,-0.0107421875,0.06615089145080728,0.011856187582243799,0.014875293414555601,0.006724016946740018,-0.11115880962983733,-0.11746358785432182
1624634335.095733,0.011680670944499549,6.947455413104145e-07,5.87,5.0,0.1689065545797348,-0.06320607662200928,0.792682945728302,-0.13623046875,-0.3076171875,0.06615089145080728,0.011856187582243799,0.022834610695982433,0.008769032561100149,-0.11115880962983733,-0.11679019568370475
1624634335.095733,0.011680670944499549,6.947455413104145e-07,5.87,5.0,0.1689065545797348,-0.06320607662200928,0.792682945728302,-0.13623046875,-0.3076171875,0.06615089145080728,0.011856187582243799,0.022834610695982433,0.008769032561100149,-0.11115880962983733,-0.11679019568370475
1624634335.169733,0.017559994076999746,3.845923302952399e-06,5.87,5.0,0.1689065545797348,-0.06320607662200928,0.792682945728302,-0.13623046875,-0.3076171875,0.09365977151271057,0.014719026176640867,0.022834610695982433,0.008769032561100149,-0.10905335004368479,-0.11679019568370475
1624634335.169733,0.017559994076999746,3.845923302952399e-06,5.86,4.99,0.1689065545797348,-0.06320607662200928,0.792682945728302,-0.13623046875,-0.3076171875,0.09365977151271057,0.014719026176640867,0.022834610695982433,0.008769032561100149,-0.10905335004368479,-0.11679019568370475
1624634335.169733,0.017559994076999746,3.845923302952399e-06,5.86,4.99,0.2809414565563202,-0.04796366021037102,0.792682945728302,-0.13623046875,-0.3076171875,0.09365977151271057,0.014719026176640867,0.022834610695982433,0.008769032561100149,-0.10905335004368479,-0.11679019568370475
1624634335.169733,0.017559994076999746,3.845923302952399e-06,5.86,4.99,0.2809414565563202,-0.04796366021037102,0.792682945728302,-0.13623046875,-0.3076171875,0.09365977151271057,0.014719026176640867,0.034917808287592396,0.011673869711006769,-0.10905335004368479,-0.11563909293079563
1624634335.169733,0.017559994076999746,3.845923302952399e-06,5.86,4.99,0.2809414565563202,-0.04796366021037102,0.792682945728302,-0.13623046875,-0.3076171875,0.09601233556864174,0.013913112698178893,0.034917808287592396,0.011673869711006769,-0.1112498475638115,-0.11563909293079563
1624634335.215733,0.02259686969985037,6.587949808633699e-06,5.86,4.99,0.2809414565563202,-0.04796366021037102,0.792682945728302,-0.13623046875,-0.3076171875,0.09601233556864174,0.013913112698178893,0.034917808287592396,0.011673869711006769,-0.1112498475638115,-0.11563909293079563
1624634335.215733,0.02259686969985037,6.587949808633699e-06,5.86,4.99,0.2809414565563202,-0.04796366021037102,0.792682945728302,-0.13623046875,-0.3076171875,0.09601233556864174,0.013913112698178893,0.034917808287592396,0.011673869711006769,-0.1112498475638115,-0.11563909293079563
1624634335.215733,0.02259686969985037,6.587949808633699e-06,5.86,4.99,0.2809414565563202,-0.04796366021037102,0.792682945728302,-0.13623046875,-0.3076171875,0.09601233556864174,0.013913112698178893,0.034917808287592396,0.011673869711006769,-0.1112498475638115,-0.11563909293079563
1624634335.215733,0.02259686969985037,6.587949808633699e-06,5.86,4.99,0.39568689465522766,-0.015703359618782997,-2.0731706619262695,0.00537109375,0.1220703125,0.09601233556864174,0.013913112698178893,0.045335448913142166,0.012624468461508118,-0.1112498475638115,-0.11481439064236404
1624634335.275733,0.027382557755162483,5.07972208083747e-06,5.86,4.99,0.39568689465522766,-0.015703359618782997,-2.0731706619262695,0.00537109375,0.1220703125,0.10287380085443364,0.012899728090355509,0.045335448913142166,0.012624468461508118,-0.11347584695777753,-0.11481439064236404
1624634335.275733,0.027382557755162483,5.07972208083747e-06,5.86,4.99,0.39568689465522766,-0.015703359618782997,-2.0731706619262695,0.00537109375,0.1220703125,0.10287380085443364,0.012899728090355509,0.045335448913142166,0.012624468461508118,-0.11347584695777753,-0.11481439064236404
1624634335.275733,0.027382557755162483,5.07972208083747e-06,5.86,4.99,0.39568689465522766,-0.015703359618782997,-2.0731706619262695,0.00537109375,0.1220703125,0.10287380085443364,0.012899728090355509,0.045335448913142166,0.012624468461508118,-0.11347584695777753,-0.11481439064236404
1624634335.275733,0.027382557755162483,5.07972208083747e-06,5.84,4.99,0.39568689465522766,-0.015703359618782997,-2.0731706619262695,0.00537109375,0.1220703125,0.10287380085443364,0.012899728090355509,0.05582740831754801,0.012741146773442126,-0.11347584695777753,-0.11401359334363394
1624634335.275733,0.027382557755162483,5.07972208083747e-06,5.84,4.99,0.39568689465522766,-0.015703359618782997,-2.0731706619262695,0.00537109375,0.1220703125,0.10287380085443364,0.012899728090355509,0.05582740831754801,0.012741146773442126,-0.11347584695777753,-0.11401359334363394
1624634335.275733,0.030829494002588765,3.987868034907952e-06,5.84,4.99,0.4870731234550476,-0.034883853048086166,-2.0731706619262695,0.00537109375,0.1220703125,0.10287380091134739,0.010288374618974567,0.05582740831754801,0.012741146773442126,-0.11355612434095375,-0.11401359334363394
1624634335.275733,0.030829494002588765,3.987868034907952e-06,5.84,4.99,0.4870731234550476,-0.034883853048086166,-2.0731706619262695,0.00537109375,0.1220703125,0.10287380091134739,0.010288374618974567,0.05582740831754801,0.012741146773442126,-0.11355612434095375,-0.11401359334363394
1624634335.275733,0.030829494002588765,3.987868034907952e-06,5.84,4.99,0.4870731234550476,-0.034883853048086166,-2.0731706619262695,0.00537109375,0.1220703125,0.10287380091134739,0.010288374618974567,0.05582740831754801,0.012741146773442126,-0.11355612434095375,-0.11401359334363394
1624634335.275733,0.030829494002588765,3.987868034907952e-06,5.84,4.99,0.4870731234550476,-0.034883853048086166,-2.0731706619262695,0.00537109375,0.1220703125,0.10287380091134739,0.010288374618974567,0.062407804096254384,0.011906862223329687,-0.11355612434095375,-0.11403835467952905
1624634335.275733,0.030829494002588765,3.987868034907952e-06,5.84,4.99,0.4870731234550476,-0.034883853048086166,-2.0731706619262695,0.00537109375,0.1220703125,0.10287380091134739,0.010288374618974567,0.062407804096254384,0.011906862223329687,-0.11355612434095375,-0.11403835467952905
1624634335.335733,0.03480008908741291,-2.950726851879761e-06,5.84,4.99,0.4870731234550476,-0.034883853048086166,2.6219513416290283,-0.13232421875,-0.28076171875,0.11539649790708204,0.009548199236563986,0.062407804096254384,0.011906862223329687,-0.115506190792496,-0.11403835467952905
1624634335.335733,0.03480008908741291,-2.950726851879761e-06,5.84,4.99,0.5387861132621765,0.02188977040350437,2.6219513416290283,-0.13232421875,-0.28076171875,0.11539649790708204,0.009548199236563986,0.062407804096254384,0.011906862223329687,-0.115506190792496,-0.11403835467952905
1624634335.335733,0.03480008908741291,-2.950726851879761e-06,5.83,4.97,0.5387861132621765,0.02188977040350437,2.6219513416290283,-0.13232421875,-0.28076171875,0.11539649790708204,0.009548199236563986,0.062407804096254384,0.011906862223329687,-0.115506190792496,-0.11403835467952905
1624634335.335733,0.03480008908741291,-2.950726851879761e-06,5.83,4.97,0.5387861132621765,0.02188977040350437,2.6219513416290283,-0.13232421875,-0.28076171875,0.11539649790708204,0.009548199236563986,0.07181438355440828,0.011037322469024108,-0.115506190792496,-0.11350877501173724
1624634335.335733,0.03480008908741291,-2.950726851879761e-06,5.83,4.97,0.5387861132621765,0.02188977040350437,2.6219513416290283,-0.13232421875,-0.28076171875,0.11539649790708204,0.009548199236563986,0.07181438355440828,0.011037322469024108,-0.115506190792496,-0.11350877501173724
1624634335.3957329,0.039509380957895496,-1.5038123376706428e-05,5.83,4.97,0.5387861132621765,0.02188977040350437,2.6219513416290283,-0.13232421875,-0.28076171875,0.1320887482563342,0.006842063759423756,0.07181438355440828,0.011037322469024108,-0.11622505107031063,-0.11350877501173724
1624634335.3957329,0.039509380957895496,-1.5038123376706428e-05,5.83,4.97,0.5387861132621765,0.02188977040350437,2.6219513416290283,-0.13232421875,-0.28076171875,0.1320887482563342,0.006842063759423756,0.07181438355440828,0.011037322469024108,-0.11622505107031063,-0.11350877501173724
1624634335.3957329,0.039509380957895496,-1.5038123376706428e-05,5.83,4.97,0.5489872097969055,-0.0326773039996624,2.6219513416290283,-0.13232421875,-0.28076171875,0.1320887482563342,0.006842063759423756,0.07181438355440828,0.011037322469024108,-0.11622505107031063,-0.11350877501173724
1624634335.3957329,0.039509380957895496,-1.5038123376706428e-05,5.83,4.97,0.5489872097969055,-0.0326773039996624,2.6219513416290283,-0.13232421875,-0.28076171875,0.1320887482563342,0.006842063759423756,0.08285680640823449,0.00915709014807502,-0.11622505107031063,-0.11319005670286703
1624634335.3957329,0.039509380957895496,-1.5038123376706428e-05,5.83,4.97,0.5489872097969055,-0.0326773039996624,0.6707317233085632,-0.1240234375,0.13671875,0.1320887482563342,0.006842063759423756,0.08285680640823449,0.00915709014807502,-0.11622505107031063,-0.11319005670286703
1624634335.455733,0.04492142807216633,-2.839949402885526e-05,5.83,4.97,0.5489872097969055,-0.0326773039996624,0.6707317233085632,-0.1240234375,0.13671875,0.15017208624236653,0.0064018725006910835,0.08285680640823449,0.00915709014807502,-0.11638843806842147,-0.11319005670286703
1624634335.455733,0.04492142807216633,-2.839949402885526e-05,5.83,4.97,0.5489872097969055,-0.0326773039996624,0.6707317233085632,-0.1240234375,0.13671875,0.15017208624236653,0.0064018725006910835,0.08285680640823449,0.00915709014807502,-0.11638843806842147,-0.11319005670286703
1624634335.455733,0.04492142807216633,-2.839949402885526e-05,5.83,4.97,0.5489872097969055,-0.0326773039996624,0.6707317233085632,-0.1240234375,0.13671875,0.15017208624236653,0.0064018725006910835,0.08285680640823449,0.00915709014807502,-0.11638843806842147,-0.11319005670286703
1624634335.455733,0.04492142807216633,-2.839949402885526e-05,5.83,4.96,0.516586184501648,8.163135498762131e-05,0.6707317233085632,-0.1240234375,0.13671875,0.15017208624236653,0.0064018725006910835,0.09552161998145901,0.008017297697289934,-0.11638843806842147,-0.11299104231027479
1624634335.455733,0.04492142807216633,-2.839949402885526e-05,5.83,4.96,0.516586184501648,8.163135498762131e-05,0.6707317233085632,-0.1240234375,0.13671875,0.15017208624236653,0.0064018725006910835,0.09552161998145901,0.008017297697289934,-0.11638843806842147,-0.11299104231027479
1624634335.515733,0.050797121918069774,-4.142918957701882e-05,5.83,4.96,0.516586184501648,8.163135498762131e-05,0.6707317233085632,-0.1240234375,0.13671875,0.16727412553487703,-0.00045004618558037947,0.09552161998145901,0.008017297697289934,-0.11688714003796977,-0.11299104231027479
1624634335.515733,0.050797121918069774,-4.142918957701882e-05,5.83,4.96,0.516586184501648,8.163135498762131e-05,0.6707317233085632,-0.1240234375,0.13671875,0.16727412553487703,-0.00045004618558037947,0.09552161998145901,0.008017297697289934,-0.11688714003796977,-0.11299104231027479
1624634335.515733,0.050797121918069774,-4.142918957701882e-05,5.83,4.96,0.516586184501648,8.163135498762131e-05,0.6707317233085632,-0.1240234375,0.13671875,0.16727412553487703,-0.00045004618558037947,0.10940503302390613,0.0042996283709604375,-0.11688714003796977,-0.11312437811466479
1624634335.515733,0.050797121918069774,-4.142918957701882e-05,5.83,4.96,0.5097746849060059,-0.0020960012916475534,0.6707317233085632,-0.1240234375,0.13671875,0.16727412553487703,-0.00045004618558037947,0.10940503302390613,0.0042996283709604375,-0.11688714003796977,-0.11312437811466479
1624634335.515733,0.050797121918069774,-4.142918957701882e-05,5.83,4.96,0.5097746849060059,-0.0020960012916475534,2.5,0.14990234375,0.06396484375,0.16727412553487703,-0.00045004618558037947,0.10940503302390613,0.0042996283709604375,-0.11688714003796977,-0.11312437811466479
1624634335.575733,0.056786261103990834,-5.310227579665413e-05,5.83,4.96,0.5097746849060059,-0.0020960012916475534,2.5,0.14990234375,0.06396484375,0.18184668033363738,-0.0004314249711561098,0.10940503302390613,0.0042996283709604375,-0.11705506005578759,-0.11312437811466479
1624634335.575733,0.056786261103990834,-5.310227579665413e-05,5.83,4.96,0.5097746849060059,-0.0020960012916475534,2.5,0.14990234375,0.06396484375,0.18184668033363738,-0.0004314249711561098,0.10940503302390613,0.0042996283709604375,-0.11705506005578759,-0.11312437811466479
1624634335.575733,0.056786261103990834,-5.310227579665413e-05,5.83,4.91,0.5097746849060059,-0.0020960012916475534,2.5,0.14990234375,0.06396484375,0.18184668033363738,-0.0004314249711561098,0.12387351874351639,0.0024350509126961116,-0.11705506005578759,-0.11338148301253179
1624634335.575733,0.056786261103990834,-5.310227579665413e-05,5.83,4.91,0.5097746849060059,-0.0020960012916475534,2.5,0.14990234375,0.06396484375,0.18184668033363738,-0.0004314249711561098,0.12387351874351639,0.0024350509126961116,-0.11705506005578759,-0.11338148301253179
1624634335.575733,0.056786261103990834,-5.310227579665413e-05,5.83,4.91,0.49569588899612427,-0.017349814996123314,2.5,0.14990234375,0.06396484375,0.18184668033363738,-0.0004314249711561098,0.12387351874351639,0.0024350509126961116,-0.11705506005578759,-0.11338148301253179
1624634335.575733,0.06108263613184992,-6.14470025797589e-05,5.83,4.91,0.49569588899612427,-0.017349814996123314,2.5,0.14990234375,0.06396484375,0.18184668020810263,0.004242888672273998,0.12387351874351639,0.0024350509126961116,-0.11691025576790695,-0.11338148301253179
1624634335.575733,0.06108263613184992,-6.14470025797589e-05,5.83,4.91,0.49569588899612427,-0.017349814996123314,2.5,0.14990234375,0.06396484375,0.18184668020810263,0.004242888672273998,0.12387351874351639,0.0024350509126961116,-0.11691025576790695,-0.11338148301253179
1624634335.575733,0.06108263613184992,-6.14470025797589e-05,5.83,4.91,0.49569588899612427,-0.017349814996123314,2.5,0.14990234375,0.06396484375,0.18184668020810263,0.004242888672273998,0.13206625604952155,0.003016169868191019,-0.11691025576790695,-0.11364324203238176
1624634335.575733,0.06108263613184992,-6.14470025797589e-05,5.83,4.91,0.49569588899612427,-0.017349814996123314,1.097561001777649,-0.19677734375,0.08935546875,0.18184668020810263,0.004242888672273998,0.13206625604952155,0.003016169868191019,-0.11691025576790695,-0.11364324203238176
1624634335.575733,0.06108263613184992,-6.14470025797589e-05,5.83,4.91,0.49569588899612427,-0.017349814996123314,1.097561001777649,-0.19677734375,0.08935546875,0.18184668020810263,0.004242888672273998,0.13206625604952155,0.003016169868191019,-0.11691025576790695,-0.11364324203238176
1624634335.6789942,0.06503915326968789,-6.858835301369978e-05,5.83,4.91,0.5001157522201538,-0.019626488909125328,1.097561001777649,-0.19677734375,0.08935546875,0.18523756130159164,0.0033344728254659367,0.13206625604952155,0.003016169868191019,-0.11661262123801254,-0.11364324203238176
1624634335.6789942,0.06503915326968789,-6.858835301369978e-05,5.83,4.91,0.5001157522201538,-0.019626488909125328,1.097561001777649,-0.19677734375,0.08935546875,0.18523756130159164,0.0033344728254659367,0.13206625604952155,0.003016169868191019,-0.11661262123801254,-0.11364324203238176
1624634335.6789942,0.06503915326968789,-6.858835301369978e-05,5.84,4.89,0.5001157522201538,-0.019626488909125328,1.097561001777649,-0.19677734375,0.08935546875,0.18523756130159164,0.0033344728254659367,0.14594036207127659,0.003108138222350981,-0.11661262123801254,-0.11355230867122587
1624634335.6789942,0.06503915326968789,-6.858835301369978e-05,5.84,4.89,0.5001157522201538,-0.019626488909125328,1.097561001777649,-0.19677734375,0.08935546875,0.18523756130159164,0.0033344728254659367,0.14594036207127659,0.003108138222350981,-0.11661262123801254,-0.11355230867122587
1624634335.6789942,0.06503915326968789,-6.858835301369978e-05,5.84,4.89,0.5001157522201538,-0.019626488909125328,1.097561001777649,-0.19677734375,0.08935546875,0.18523756130159164,0.0033344728254659367,0.14594036207127659,0.003108138222350981,-0.11661262123801254,-0.11355230867122587
1624634335.704994,0.06940283244446276,-7.340626867426943e-05,5.84,4.89,0.5001157522201538,-0.019626488909125328,1.097561001777649,-0.19677734375,0.08935546875,0.20150058401975432,0.003232360018116225,0.14594036207127659,0.003108138222350981,-0.11688935554086871,-0.11355230867122587
1624634335.704994,0.06940283244446276,-7.340626867426943e-05,5.84,4.89,0.49365755915641785,0.002259694505482912,1.097561001777649,-0.19677734375,0.08935546875,0.20150058401975432,0.003232360018116225,0.14594036207127659,0.003108138222350981,-0.11688935554086871,-0.11355230867122587
1624634335.704994,0.06940283244446276,-7.340626867426943e-05,5.84,4.89,0.49365755915641785,0.002259694505482912,1.097561001777649,-0.19677734375,0.08935546875,0.20150058401975432,0.003232360018116225,0.15597025640089673,0.003058187907327081,-0.11688935554086871,-0.11387613291962474
1624634335.704994,0.06940283244446276,-7.340626867426943e-05,5.84,4.89,0.49365755915641785,0.002259694505482912,-2.865853786468506,-0.32861328125,-0.02197265625,0.20150058401975432,0.003232360018116225,0.15597025640089673,0.003058187907327081,-0.11688935554086871,-0.11387613291962474
1624634335.704994,0.06940283244446276,-7.340626867426943e-05,5.84,4.89,0.49365755915641785,0.002259694505482912,-2.865853786468506,-0.32861328125,-0.02197265625,0.20150058401975432,0.003232360018116225,0.15597025640089673,0.003058187907327081,-0.11688935554086871,-0.11387613291962474
1624634335.782994,0.07321025186542642,-7.728701494050864e-05,5.84,4.84,0.49365755915641785,0.002259694505482912,-2.865853786468506,-0.32861328125,-0.02197265625,0.20584157114437707,0.004504026633328092,0.16867039413678683,0.0036407186199755304,-0.11718636336562721,-0.11397898802494834
1624634335.782994,0.07321025186542642,-7.728701494050864e-05,5.84,4.84,0.4958163797855377,0.017520612105727196,-2.865853786468506,-0.32861328125,-0.02197265625,0.20584157114437707,0.004504026633328092,0.16867039413678683,0.0036407186199755304,-0.11718636336562721,-0.11397898802494834
1624634335.782994,0.07321025186542642,-7.728701494050864e-05,5.84,4.84,0.4958163797855377,0.017520612105727196,-2.865853786468506,-0.32861328125,-0.02197265625,0.20584157114437707,0.004504026633328092,0.16867039413678683,0.0036407186199755304,-0.11718636336562721,-0.11397898802494834
1624634335.782994,0.07321025186542642,-7.728701494050864e-05,5.84,4.84,0.4958163797855377,0.017520612105727196,-2.865853786468506,-0.32861328125,-0.02197265625,0.20584157114437707,0.004504026633328092,0.16867039413678683,0.0036407186199755304,-0.11718636336562721,-0.11397898802494834
1624634335.782994,0.07321025186542642,-7.728701494050864e-05,5.84,4.84,0.4958163797855377,0.017520612105727196,-2.865853786468506,-0.32861328125,-0.02197265625,0.20584157114437707,0.004504026633328092,0.16867039413678683,0.0036407186199755304,-0.11718636336562721,-0.11397898802494834
1624634335.824994,0.07700887456901447,-7.98219894848137e-05,5.84,4.84,0.4958163797855377,0.017520612105727196,-2.865853786468506,-0.32861328125,-0.02197265625,0.21690431342343247,0.004321016280891267,0.16867039413678683,0.0036407186199755304,-0.1168742759526513,-0.11397898802494834
1624634335.824994,0.07700887456901447,-7.98219894848137e-05,5.84,4.84,0.4958163797855377,0.017520612105727196,-2.865853786468506,-0.32861328125,-0.02197265625,0.21690431342343247,0.004321016280891267,0.16867039413678683,0.0036407186199755304,-0.1168742759526513,-0.11397898802494834
1624634335.824994,0.07700887456901447,-7.98219894848137e-05,5.84,4.84,0.4958163797855377,0.017520612105727196,-2.865853786468506,-0.32861328125,-0.02197265625,0.21690431342343247,0.004321016280891267,0.17901285859376528,0.003793398804642169,-0.1168742759526513,-0.11426859438858604
1624634335.824994,0.07700887456901447,-7.98219894848137e-05,5.84,4.84,0.5179764628410339,7.191322220023721e-05,-2.865853786468506,-0.32861328125,-0.02197265625,0.21690431342343247,0.004321016280891267,0.17901285859376528,0.003793398804642169,-0.1168742759526513,-0.11426859438858604
1624634335.824994,0.07700887456901447,-7.98219894848137e-05,5.84,4.84,0.5179764628410339,7.191322220023721e-05,-0.9146341681480408,-0.01123046875,-0.24853515625,0.21690431342343247,0.004321016280891267,0.17901285859376528,0.003793398804642169,-0.1168742759526513,-0.11426859438858604
1624634335.884994,0.08041252825721713,-8.17302220242922e-05,5.84,4.84,0.5179764628410339,7.191322220023721e-05,-0.9146341681480408,-0.01123046875,-0.24853515625,0.22341613073119115,0.004034478022505862,0.17901285859376528,0.003793398804642169,-0.11708017015117188,-0.11426859438858604
1624634335.884994,0.08041252825721713,-8.17302220242922e-05,5.84,4.84,0.5179764628410339,7.191322220023721e-05,-0.9146341681480408,-0.01123046875,-0.24853515625,0.22341613073119115,0.004034478022505862,0.17901285859376528,0.003793398804642169,-0.11708017015117188,-0.11426859438858604
1624634335.884994,0.08041252825721713,-8.17302220242922e-05,5.85,4.83,0.5179764628410339,7.191322220023721e-05,-0.9146341681480408,-0.01123046875,-0.24853515625,0.22341613073119115,0.004034478022505862,0.17901285859376528,0.003793398804642169,-0.11708017015117188,-0.11426859438858604
1624634335.884994,0.08041252825721713,-8.17302220242922e-05,5.85,4.83,0.5179764628410339,7.191322220023721e-05,-0.9146341681480408,-0.01123046875,-0.24853515625,0.22341613073119115,0.004034478022505862,0.17901285859376528,0.003793398804642169,-0.11708017015117188,-0.11426859438858604
1624634335.884994,0.08041252825721713,-8.17302220242922e-05,5.85,4.83,0.5101124048233032,-0.03270423039793968,-0.9146341681480408,-0.01123046875,-0.24853515625,0.22341613073119115,0.004034478022505862,0.17901285859376528,0.003793398804642169,-0.11708017015117188,-0.11426859438858604
1624634335.8869941,0.08282370028375766,-8.318347551609936e-05,5.85,4.83,0.5101124048233032,-0.03270423039793968,-0.9146341681480408,-0.01123046875,-0.24853515625,0.22296927614544867,-0.000508645031035551,0.19014726412642993,0.0037660584017229926,-0.11722106952521313,-0.1145321288622982
1624634335.8869941,0.08282370028375766,-8.318347551609936e-05,5.85,4.83,0.5101124048233032,-0.03270423039793968,-0.9146341681480408,-0.01123046875,-0.24853515625,0.22296927614544867,-0.000508645031035551,0.19014726412642993,0.0037660584017229926,-0.11722106952521313,-0.1145321288622982
1624634335.8869941,0.08282370028375766,-8.318347551609936e-05,5.85,4.83,0.5101124048233032,-0.03270423039793968,-0.9146341681480408,-0.01123046875,-0.24853515625,0.22296927614544867,-0.000508645031035551,0.19014726412642993,0.0037660584017229926,-0.11722106952521313,-0.1145321288622982
1624634335.8869941,0.08282370028375766,-8.318347551609936e-05,5.85,4.83,0.5101124048233032,-0.03270423039793968,-0.9146341681480408,-0.01123046875,-0.24853515625,0.22296927614544867,-0.000508645031035551,0.19014726412642993,0.0037660584017229926,-0.11722106952521313,-0.1145321288622982
1624634335.8869941,0.08282370028375766,-8.318347551609936e-05,5.85,4.83,0.5101124048233032,-0.03270423039793968,5.365853786468506,-0.05859375,0.068359375,0.22296927614544867,-0.000508645031035551,0.1949217170513455,0.002221705601823362,-0.11722106952521313,-0.11496257118189517
1624634335.944994,0.08514620397502559,-8.356729386644352e-05,5.85,4.83,0.4994826316833496,0.01305440254509449,5.365853786468506,-0.05859375,0.068359375,0.2296028071494385,-0.00048412948331688947,0.1949217170513455,0.002221705601823362,-0.11735017211493186,-0.11496257118189517
1624634335.944994,0.08514620397502559,-8.356729386644352e-05,5.85,4.83,0.4994826316833496,0.01305440254509449,5.365853786468506,-0.05859375,0.068359375,0.2296028071494385,-0.00048412948331688947,0.20415457901925235,0.0012425001167115683,-0.11735017211493186,-0.11528030234520495
1624634335.944994,0.08514620397502559,-8.356729386644352e-05,5.86,4.79,0.4994826316833496,0.01305440254509449,5.365853786468506,-0.05859375,0.068359375,0.2296028071494385,-0.00048412948331688947,0.20415457901925235,0.0012425001167115683,-0.11735017211493186,-0.11528030234520495
1624634335.944994,0.08514620397502559,-8.356729386644352e-05,5.86,4.79,0.4994826316833496,0.01305440254509449,5.365853786468506,-0.05859375,0.068359375,0.2296028071494385,-0.00048412948331688947,0.20415457901925235,0.0012425001167115683,-0.11735017211493186,-0.11528030234520495
1624634335.944994,0.08514620397502559,-8.356729386644352e-05,5.86,4.79,0.4994826316833496,0.01305440254509449,5.365853786468506,-0.05859375,0.068359375,0.2296028071494385,-0.00048412948331688947,0.20415457901925235,0.0012425001167115683,-0.11735017211493186,-0.11528030234520495
1624634336.0049942,0.08723177025461558,-8.248586615661133e-05,5.86,4.79,0.4994826316833496,0.01305440254509449,5.365853786468506,-0.05859375,0.068359375,0.23501758697733127,0.0066850259992121954,0.20415457901925235,0.0012425001167115683,-0.11681674464656948,-0.11528030234520495
1624634336.0049942,0.08723177025461558,-8.248586615661133e-05,5.86,4.79,0.47086426615715027,-0.037890587002038956,5.365853786468506,-0.05859375,0.068359375,0.23501758697733127,0.0066850259992121954,0.20415457901925235,0.0012425001167115683,-0.11681674464656948,-0.11528030234520495
1624634336.0049942,0.08723177025461558,-8.248586615661133e-05,5.86,4.79,0.47086426615715027,-0.037890587002038956,5.365853786468506,-0.05859375,0.068359375,0.23501758697733127,0.0066850259992121954,0.20415457901925235,0.0012425001167115683,-0.11681674464656948,-0.11528030234520495
1624634336.0049942,0.08723177025461558,-8.248586615661133e-05,5.86,4.79,0.47086426615715027,-0.037890587002038956,-2.0731706619262695,-0.13916015625,0.095703125,0.23501758697733127,0.0066850259992121954,0.20415457901925235,0.0012425001167115683,-0.11681674464656948,-0.11528030234520495
1624634336.0049942,0.08723177025461558,-8.248586615661133e-05,5.86,4.79,0.47086426615715027,-0.037890587002038956,-2.0731706619262695,-0.13916015625,0.095703125,0.23501758697733127,0.0066850259992121954,0.21323555273016767,0.003498776328133786,-0.11681674464656948,-0.1153807774373571
1624634336.074994,0.08865978203271174,-7.987218702802734e-05,5.86,4.79,0.47086426615715027,-0.037890587002038956,-2.0731706619262695,-0.13916015625,0.095703125,0.23621253578719176,-0.0014676607165065435,0.21323555273016767,0.003498776328133786,-0.1170837015426036,-0.1153807774373571
1624634336.074994,0.08865978203271174,-7.987218702802734e-05,5.86,4.79,0.47086426615715027,-0.037890587002038956,-2.0731706619262695,-0.13916015625,0.095703125,0.23621253578719176,-0.0014676607165065435,0.21323555273016767,0.003498776328133786,-0.1170837015426036,-0.1153807774373571
1624634336.074994,0.08865978203271174,-7.987218702802734e-05,5.85,4.75,0.37430015206336975,0.01532752439379692,-2.0731706619262695,-0.13916015625,0.095703125,0.23621253578719176,-0.0014676607165065435,0.21323555273016767,0.003498776328133786,-0.1170837015426036,-0.1153807774373571
1624634336.074994,0.08865978203271174,-7.987218702802734e-05,5.85,4.75,0.37430015206336975,0.01532752439379692,-2.0731706619262695,-0.13916015625,0.095703125,0.23621253578719176,-0.0014676607165065435,0.21323555273016767,0.003498776328133786,-0.1170837015426036,-0.1153807774373571
1624634336.074994,0.08865978203271174,-7.987218702802734e-05,5.85,4.75,0.37430015206336975,0.01532752439379692,-2.0731706619262695,-0.13916015625,0.095703125,0.23621253578719176,-0.0014676607165065435,0.22206467100590174,0.0010157105398602827,-0.1170837015426036,-0.1155983014035763
1624634336.124994,0.08967209482243645,-7.683231684313404e-05,5.85,4.75,0.37430015206336975,0.01532752439379692,-2.0731706619262695,-0.13916015625,0.095703125,0.23846836563518292,-0.0013935645883969175,0.22206467100590174,0.0010157105398602827,-0.11713669283788684,-0.1155983014035763
1624634336.124994,0.08967209482243645,-7.683231684313404e-05,5.85,4.75,0.37430015206336975,0.01532752439379692,-2.0731706619262695,-0.13916015625,0.095703125,0.23846836563518292,-0.0013935645883969175,0.22206467100590174,0.0010157105398602827,-0.11713669283788684,-0.1155983014035763
1624634336.124994,0.08967209482243645,-7.683231684313404e-05,5.85,4.75,0.37430015206336975,0.01532752439379692,-2.0731706619262695,-0.13916015625,0.095703125,0.23846836563518292,-0.0013935645883969175,0.22206467100590174,0.0010157105398602827,-0.11713669283788684,-0.1155983014035763
