time,la_x,la_y,uwb_x,uwb_y,vel_linear_x,vel_angular_z,mpu_ang_vel_z,mpu_linear_acc_x,mpu_linear_acc_y,odom_linear_x,odom_angular_z,odom_filtered_linear_x,odom_filtered_angular_z,odom_yaw,odom_filtered_yaw,cmd_linear_x,cmd_angular_z,var_x,var_xvel,var_y,var_yvel,cov_x_xvel,cov_y_yvel
1625155245.213001,0.0,0.0,0.0,0.0,,,1.1585365533828735,-0.009765625,0.0029296875,0.0,0.0017422278897341193,0.0,0.0016590851500974143,8.385972702421531e-05,0.0016573572734105682,,,6.602217392584876,4.8515101606466005e-08,6.60221739258488,4.8515101606466005e-08,0.0,0.0
1625155245.213001,0.0,0.0,0.0,0.0,,,1.1585365533828735,-0.009765625,0.0029296875,0.0,0.0017422278897341193,0.0,0.0016590851500974143,8.385972702421531e-05,0.0016573572734105682,,,6.602217392584876,4.8515101606466005e-08,6.60221739258488,4.8515101606466005e-08,0.0,0.0
1625155245.213001,0.0,0.0,5.72,4.81,0.0,0.0,1.1585365533828735,-0.009765625,0.0029296875,0.0,0.0017422278897341193,0.0,0.0016590851500974143,8.385972702421531e-05,0.0016573572734105682,,,6.602217392584876,4.8515101606466005e-08,6.60221739258488,4.8515101606466005e-08,0.0,0.0
1625155245.213001,0.0,0.0,5.72,4.81,0.0,0.0,1.1585365533828735,-0.009765625,0.0029296875,0.0,0.0017422278897341193,0.0,0.0016590851500974143,8.385972702421531e-05,0.0016573572734105682,,,6.602217392584876,4.8515101606466005e-08,6.60221739258488,4.8515101606466005e-08,0.0,0.0
1625155245.213001,0.0,0.0,5.72,4.81,0.0,0.0,1.2804877758026123,-0.01416015625,0.00390625,0.0,0.0017422278897341193,0.0,0.0016590851500974143,8.385972702421531e-05,0.0016573572734105682,,,6.602217392584876,4.8515101606466005e-08,6.60221739258488,4.8515101606466005e-08,0.0,0.0
1625155245.287001,0.0,0.0,5.72,4.81,0.0,0.0,1.2804877758026123,-0.01416015625,0.00390625,0.0,0.001908737445761012,0.0,0.0017280710666278828,0.00011481242793091736,0.0017118377090634559,,,6.602522780786827,5.145744238855222e-08,6.60252278078683,5.145744238855223e-08,0.0,0.0
1625155245.287001,0.0,0.0,5.72,4.81,0.0,0.0,1.2804877758026123,-0.01416015625,0.00390625,0.0,0.001908737445761012,0.0,0.0017280710666278828,0.00011481242793091736,0.0017118377090634559,,,6.602522780786827,5.145744238855222e-08,6.60252278078683,5.145744238855223e-08,0.0,0.0
1625155245.287001,0.0,0.0,5.72,4.81,0.0,0.0,1.2804877758026123,-0.01416015625,0.00390625,0.0,0.001908737445761012,0.0,0.0017280710666278828,0.00011481242793091736,0.0017118377090634559,,,6.602522780786827,5.145744238855222e-08,6.60252278078683,5.145744238855223e-08,0.0,0.0
1625155245.287001,0.0,0.0,5.72,4.81,0.0,0.0,1.2804877758026123,-0.01416015625,0.00390625,0.0,0.001908737445761012,0.0,0.0017280710666278828,0.00011481242793091736,0.0017118377090634559,,,6.602522780786827,5.145744238855222e-08,6.60252278078683,5.145744238855223e-08,0.0,0.0
1625155245.287001,0.0,0.0,5.72,4.81,0.0,0.0,1.2804877758026123,-0.01416015625,0.00390625,0.0,0.001908737445761012,0.0,0.0017280710666278828,0.00011481242793091736,0.0017118377090634559,,,6.602522780786827,5.145744238855222e-08,6.60252278078683,5.145744238855223e-08,0.0,0.0
1625155245.333001,0.0,0.0,5.72,4.81,0.0,0.0,1.2804877758026123,-0.01416015625,0.00390625,0.0,0.0018156100211737705,0.0,0.0016981406466051495,8.680466459446707e-05,0.0016944343336669316,,,6.602657403290578,5.087397473864954e-08,6.602657403290581,5.0873974738649544e-08,0.0,0.0
1625155245.333001,0.0,0.0,5.72,4.81,0.0,0.0,1.2804877758026123,-0.01416015625,0.00390625,0.0,0.0018156100211737705,0.0,0.0016981406466051495,8.680466459446707e-05,0.0016944343336669316,,,6.602657403290578,5.087397473864954e-08,6.602657403290581,5.0873974738649544e-08,0.0,0.0
1625155245.333001,0.0,0.0,5.72,4.8,0.0,0.0,1.2804877758026123,-0.01416015625,0.00390625,0.0,0.0018156100211737705,0.0,0.0016981406466051495,8.680466459446707e-05,0.0016944343336669316,,,6.602657403290578,5.087397473864954e-08,6.602657403290581,5.0873974738649544e-08,0.0,0.0
1625155245.333001,0.0,0.0,5.72,4.8,0.0,0.0,1.2804877758026123,-0.01416015625,0.00390625,0.0,0.0018156100211737705,0.0,0.0016981406466051495,8.680466459446707e-05,0.0016944343336669316,,,6.602657403290578,5.087397473864954e-08,6.602657403290581,5.0873974738649544e-08,0.0,0.0
1625155245.333001,0.0,0.0,5.72,4.8,0.0,0.0,1.402438998222351,-0.01513671875,0.00048828125,0.0,0.0018156100211737705,0.0,0.0016981406466051495,8.680466459446707e-05,0.0016944343336669316,,,6.602657403290578,5.087397473864954e-08,6.602657403290581,5.0873974738649544e-08,0.0,0.0
1625155245.393001,0.0,0.0,5.72,4.8,0.0,0.0,1.402438998222351,-0.01513671875,0.00048828125,0.0,0.0017001110608301738,0.0,0.0016236724535946458,8.26499247068843e-05,0.0016952237666357914,,,6.602878773484115,5.186199794551584e-08,6.602878773484118,5.186199794551585e-08,0.0,0.0
1625155245.393001,0.0,0.0,5.72,4.8,0.0,0.0,1.402438998222351,-0.01513671875,0.00048828125,0.0,0.0017001110608301738,0.0,0.0016236724535946458,8.26499247068843e-05,0.0016952237666357914,,,6.602878773484115,5.186199794551584e-08,6.602878773484118,5.186199794551585e-08,0.0,0.0
1625155245.393001,0.0,0.0,5.72,4.8,0.0,0.0,1.402438998222351,-0.01513671875,0.00048828125,0.0,0.0017001110608301738,0.0,0.0016236724535946458,8.26499247068843e-05,0.0016952237666357914,,,6.602878773484115,5.186199794551584e-08,6.602878773484118,5.186199794551585e-08,0.0,0.0
1625155245.393001,0.0,0.0,5.72,4.8,0.0,0.0,1.402438998222351,-0.01513671875,0.00048828125,0.0,0.0017001110608301738,0.0,0.0016236724535946458,8.26499247068843e-05,0.0016952237666357914,,,6.602878773484115,5.186199794551584e-08,6.602878773484118,5.186199794551585e-08,0.0,0.0
1625155245.393001,0.0,0.0,5.72,4.8,0.0,0.0,1.402438998222351,-0.01513671875,0.00048828125,0.0,0.0017001110608301738,0.0,0.0016236724535946458,8.26499247068843e-05,0.0016952237666357914,,,6.602878773484115,5.186199794551584e-08,6.602878773484118,5.186199794551585e-08,0.0,0.0
1625155245.393001,0.0,0.0,5.72,4.8,0.0,0.0,1.402438998222351,-0.01513671875,0.00048828125,0.0,0.0020981134342326823,0.0,0.0017440940652885416,9.504615078696317e-05,0.0016177744270193092,,,6.602748893705695,4.698819423339728e-08,6.602748893705699,4.698819423339729e-08,0.0,0.0
1625155245.393001,0.0,0.0,5.72,4.8,0.0,0.0,1.402438998222351,-0.01513671875,0.00048828125,0.0,0.0020981134342326823,0.0,0.0017440940652885416,9.504615078696317e-05,0.0016177744270193092,,,6.602748893705695,4.698819423339728e-08,6.602748893705699,4.698819423339729e-08,0.0,0.0
1625155245.393001,0.0,0.0,5.72,4.8,0.0,0.0,1.402438998222351,-0.01513671875,0.00048828125,0.0,0.0020981134342326823,0.0,0.0017440940652885416,9.504615078696317e-05,0.0016177744270193092,,,6.602748893705695,4.698819423339728e-08,6.602748893705699,4.698819423339729e-08,0.0,0.0
1625155245.393001,0.0,0.0,5.72,4.8,0.0,0.0,1.3414634466171265,-0.015625,0.0087890625,0.0,0.0020981134342326823,0.0,0.0017440940652885416,9.504615078696317e-05,0.0016177744270193092,,,6.602748893705695,4.698819423339728e-08,6.602748893705699,4.698819423339729e-08,0.0,0.0
1625155245.393001,0.0,0.0,5.72,4.8,0.0,0.0,1.3414634466171265,-0.015625,0.0087890625,0.0,0.0020981134342326823,0.0,0.0017440940652885416,9.504615078696317e-05,0.0016177744270193092,,,6.602748893705695,4.698819423339728e-08,6.602748893705699,4.698819423339729e-08,0.0,0.0
1625155245.4750009,0.0,0.0,5.72,4.8,0.0,0.0,1.3414634466171265,-0.015625,0.0087890625,0.0,0.0017372983142690198,0.0,0.0017062401058252556,0.0001267882598760063,0.0016961752097981,,,6.603092974277707,5.048308849507991e-08,6.60309297427771,5.048308849507991e-08,0.0,0.0
1625155245.4750009,0.0,0.0,5.72,4.8,0.0,0.0,1.3414634466171265,-0.015625,0.0087890625,0.0,0.0017372983142690198,0.0,0.0017062401058252556,0.0001267882598760063,0.0016961752097981,,,6.603092974277707,5.048308849507991e-08,6.60309297427771,5.048308849507991e-08,0.0,0.0
1625155245.4750009,0.0,0.0,5.72,4.8,0.0,0.0,1.3414634466171265,-0.015625,0.0087890625,0.0,0.0017372983142690198,0.0,0.0017062401058252556,0.0001267882598760063,0.0016961752097981,,,6.603092974277707,5.048308849507991e-08,6.60309297427771,5.048308849507991e-08,0.0,0.0
1625155245.4750009,0.0,0.0,5.72,4.8,0.0,0.0,1.3414634466171265,-0.015625,0.0087890625,0.0,0.0017372983142690198,0.0,0.0017062401058252556,0.0001267882598760063,0.0016961752097981,,,6.603092974277707,5.048308849507991e-08,6.60309297427771,5.048308849507991e-08,0.0,0.0
1625155245.4750009,0.0,0.0,5.72,4.8,0.0,0.0,1.3414634466171265,-0.015625,0.0087890625,0.0,0.0017372983142690198,0.0,0.0017062401058252556,0.0001267882598760063,0.0016961752097981,,,6.603092974277707,5.048308849507991e-08,6.60309297427771,5.048308849507991e-08,0.0,0.0
1625155245.513001,0.0,0.0,5.72,4.8,0.0,0.0,1.3414634466171265,-0.015625,0.0087890625,0.0,0.0016668993176349272,0.0,0.0016406571397360424,8.321561811126758e-05,0.0016652988328060205,,,6.60318107210849,4.916239718006326e-08,6.603181072108494,4.916239718006326e-08,0.0,0.0
1625155245.513001,0.0,0.0,5.72,4.8,0.0,0.0,1.3414634466171265,-0.015625,0.0087890625,0.0,0.0016668993176349272,0.0,0.0016406571397360424,8.321561811126758e-05,0.0016652988328060205,,,6.60318107210849,4.916239718006326e-08,6.603181072108494,4.916239718006326e-08,0.0,0.0
1625155245.513001,0.0,0.0,5.72,4.8,0.0,0.0,1.3414634466171265,-0.015625,0.0087890625,0.0,0.0016668993176349272,0.0,0.0016406571397360424,8.321561811126758e-05,0.0016652988328060205,,,6.60318107210849,4.916239718006326e-08,6.603181072108494,4.916239718006326e-08,0.0,0.0
1625155245.513001,0.0,0.0,5.72,4.8,0.0,0.0,1.2804877758026123,-0.01513671875,0.0107421875,0.0,0.0016668993176349272,0.0,0.0016406571397360424,8.321561811126758e-05,0.0016652988328060205,,,6.60318107210849,4.916239718006326e-08,6.603181072108494,4.916239718006326e-08,0.0,0.0
1625155245.513001,0.0,0.0,5.72,4.8,0.0,0.0,1.2804877758026123,-0.01513671875,0.0107421875,0.0,0.0016668993176349272,0.0,0.0016406571397360424,8.321561811126758e-05,0.0016652988328060205,,,6.60318107210849,4.916239718006326e-08,6.603181072108494,4.916239718006326e-08,0.0,0.0
1625155245.579001,0.0,0.0,5.72,4.8,0.0,0.0,1.2804877758026123,-0.01513671875,0.0107421875,0.0,0.0017136272551201484,0.0,0.001624099720575159,9.244589954530352e-05,0.0016895922015354745,,,6.603436052511664,5.089971177698075e-08,6.603436052511667,5.089971177698075e-08,0.0,0.0
1625155245.579001,0.0,0.0,5.72,4.8,0.0,0.0,1.2804877758026123,-0.01513671875,0.0107421875,0.0,0.0017136272551201484,0.0,0.001624099720575159,9.244589954530352e-05,0.0016895922015354745,,,6.603436052511664,5.089971177698075e-08,6.603436052511667,5.089971177698075e-08,0.0,0.0
1625155245.579001,0.0,0.0,5.72,4.8,0.0,0.0,1.2804877758026123,-0.01513671875,0.0107421875,0.0,0.0017136272551201484,0.0,0.001624099720575159,9.244589954530352e-05,0.0016895922015354745,,,6.603436052511664,5.089971177698075e-08,6.603436052511667,5.089971177698075e-08,0.0,0.0
1625155245.579001,0.0,0.0,5.72,4.8,0.0,0.0,1.2804877758026123,-0.01513671875,0.0107421875,0.0,0.0017136272551201484,0.0,0.001624099720575159,9.244589954530352e-05,0.0016895922015354745,,,6.603436052511664,5.089971177698075e-08,6.603436052511667,5.089971177698075e-08,0.0,0.0
1625155245.579001,0.0,0.0,5.72,4.8,0.0,0.0,1.2804877758026123,-0.01513671875,0.0107421875,0.0,0.001616417843904451,0.0,0.001624099720575159,7.868527529153844e-05,0.0016895922015354745,,,6.603436052511664,5.089971177698075e-08,6.603436052511667,5.089971177698075e-08,0.0,0.0
1625155245.633001,0.0,0.0,5.72,4.8,0.0,0.0,1.2804877758026123,-0.01513671875,0.0107421875,0.0,0.001616417843904451,0.0,0.0015588116989172713,7.868527529153844e-05,0.0016789690077235505,,,6.603619733098679,5.086924454344335e-08,6.603619733098682,5.086924454344335e-08,0.0,0.0
1625155245.633001,0.0,0.0,5.72,4.8,0.0,0.0,1.2804877758026123,-0.01513671875,0.0107421875,0.0,0.001616417843904451,0.0,0.0015588116989172713,7.868527529153844e-05,0.0016789690077235505,,,6.603619733098679,5.086924454344335e-08,6.603619733098682,5.086924454344335e-08,0.0,0.0
1625155245.633001,0.0,0.0,5.72,4.8,0.0,0.0,1.2804877758026123,-0.01513671875,0.0107421875,0.0,0.001616417843904451,0.0,0.0015588116989172713,7.868527529153844e-05,0.0016789690077235505,,,6.603619733098679,5.086924454344335e-08,6.603619733098682,5.086924454344335e-08,0.0,0.0
1625155245.633001,0.0,0.0,5.72,4.8,0.0,0.0,1.2804877758026123,-0.01513671875,0.0107421875,0.0,0.001616417843904451,0.0,0.0015588116989172713,7.868527529153844e-05,0.0016789690077235505,,,6.603619733098679,5.086924454344335e-08,6.603619733098682,5.086924454344335e-08,0.0,0.0
1625155245.633001,0.0,0.0,5.72,4.8,0.0,0.0,1.2195122241973877,-0.00439453125,0.0146484375,0.0,0.0015135866592024202,0.0,0.0015588116989172713,7.419971858767817e-05,0.0016789690077235505,,,6.603619733098679,5.086924454344335e-08,6.603619733098682,5.086924454344335e-08,0.0,0.0
1625155245.693001,0.0,0.0,5.72,4.8,0.0,0.0,1.2195122241973877,-0.00439453125,0.0146484375,0.0,0.0015135866592024202,0.0,0.0014679531361852748,7.419971858767817e-05,0.001671536622845517,,,6.603841510772668,5.120127109581175e-08,6.603841510772671,5.120127109581174e-08,0.0,0.0
1625155245.693001,0.0,0.0,5.72,4.8,0.0,0.0,1.2195122241973877,-0.00439453125,0.0146484375,0.0,0.0015135866592024202,0.0,0.0014679531361852748,7.419971858767817e-05,0.001671536622845517,,,6.603841510772668,5.120127109581175e-08,6.603841510772671,5.120127109581174e-08,0.0,0.0
1625155245.693001,0.0,0.0,5.72,4.8,0.0,0.0,1.2195122241973877,-0.00439453125,0.0146484375,0.0,0.0015135866592024202,0.0,0.0014679531361852748,7.419971858767817e-05,0.001671536622845517,,,6.603841510772668,5.120127109581175e-08,6.603841510772671,5.120127109581174e-08,0.0,0.0
1625155245.693001,0.0,0.0,5.72,4.8,0.0,0.0,1.2195122241973877,-0.00439453125,0.0146484375,0.0,0.0015135866592024202,0.0,0.0014679531361852748,7.419971858767817e-05,0.001671536622845517,,,6.603841510772668,5.120127109581175e-08,6.603841510772671,5.120127109581174e-08,0.0,0.0
1625155245.693001,0.0,0.0,5.72,4.8,0.0,0.0,1.2195122241973877,-0.00439453125,0.0146484375,0.0,0.0016929247947203247,0.0,0.0014679531361852748,7.97223953883281e-05,0.001671536622845517,,,6.603841510772668,5.120127109581175e-08,6.603841510772671,5.120127109581174e-08,0.0,0.0
1625155245.693001,0.0,0.0,5.72,4.8,0.0,0.0,1.2195122241973877,-0.00439453125,0.0146484375,0.0,0.0016929247947203247,0.0,0.001502206396454885,7.97223953883281e-05,0.001589453776811234,,,6.603710468207114,4.6445167429774294e-08,6.603710468207118,4.644516742977429e-08,0.0,0.0
1625155245.693001,0.0,0.0,5.72,4.8,0.0,0.0,1.2195122241973877,-0.00439453125,0.0146484375,0.0,0.0016929247947203247,0.0,0.001502206396454885,7.97223953883281e-05,0.001589453776811234,,,6.603710468207114,4.6445167429774294e-08,6.603710468207118,4.644516742977429e-08,0.0,0.0
1625155245.693001,0.0,0.0,5.71,4.78,0.0,0.0,1.2195122241973877,-0.00439453125,0.0146484375,0.0,0.0016929247947203247,0.0,0.001502206396454885,7.97223953883281e-05,0.001589453776811234,,,6.603710468207114,4.6445167429774294e-08,6.603710468207118,4.644516742977429e-08,0.0,0.0
1625155245.693001,0.0,0.0,5.71,4.78,0.0,0.0,1.2195122241973877,-0.00439453125,0.0146484375,0.0,0.0016929247947203247,0.0,0.001502206396454885,7.97223953883281e-05,0.001589453776811234,,,6.603710468207114,4.6445167429774294e-08,6.603710468207118,4.644516742977429e-08,0.0,0.0
1625155245.693001,0.0,0.0,5.71,4.78,0.0,0.0,1.2804877758026123,-0.01953125,0.0166015625,0.0,0.0016929247947203247,0.0,0.001502206396454885,7.97223953883281e-05,0.001589453776811234,,,6.603710468207114,4.6445167429774294e-08,6.603710468207118,4.644516742977429e-08,0.0,0.0
1625155245.787001,0.0,0.0,5.71,4.78,0.0,0.0,1.2804877758026123,-0.01953125,0.0166015625,0.0,0.0018565409489708917,0.0,0.0016386119106120906,0.00014669400705336394,0.0016861489650339752,,,6.604131763275965,4.9564350476589625e-08,6.604131763275968,4.956435047658963e-08,0.0,0.0
1625155245.787001,0.0,0.0,5.71,4.78,0.0,0.0,1.2804877758026123,-0.01953125,0.0166015625,0.0,0.0018565409489708917,0.0,0.0016386119106120906,0.00014669400705336394,0.0016861489650339752,,,6.604131763275965,4.9564350476589625e-08,6.604131763275968,4.956435047658963e-08,0.0,0.0
1625155245.787001,0.0,0.0,5.71,4.78,0.0,0.0,1.2804877758026123,-0.01953125,0.0166015625,0.0,0.0018565409489708917,0.0,0.0016386119106120906,0.00014669400705336394,0.0016861489650339752,,,6.604131763275965,4.9564350476589625e-08,6.604131763275968,4.956435047658963e-08,0.0,0.0
1625155245.787001,0.0,0.0,5.71,4.78,0.0,0.0,1.2804877758026123,-0.01953125,0.0166015625,0.0,0.0018565409489708917,0.0,0.0016386119106120906,0.00014669400705336394,0.0016861489650339752,,,6.604131763275965,4.9564350476589625e-08,6.604131763275968,4.956435047658963e-08,0.0,0.0
1625155245.787001,0.0,0.0,5.71,4.78,0.0,0.0,1.2804877758026123,-0.01953125,0.0166015625,0.0,0.0018035393873253134,0.0,0.0016386119106120906,8.469543835151989e-05,0.0016861489650339752,,,6.604131763275965,4.9564350476589625e-08,6.604131763275968,4.956435047658963e-08,0.0,0.0
1625155245.813001,0.0,0.0,5.71,4.78,0.0,0.0,1.2804877758026123,-0.01953125,0.0166015625,0.0,0.0018035393873253134,0.0,0.0016469013445746825,8.469543835151989e-05,0.0016383748859761993,,,6.604147842662766,4.709853556769293e-08,6.60414784266277,4.7098535567692934e-08,0.0,0.0
1625155245.813001,0.0,0.0,5.71,4.78,0.0,0.0,1.2804877758026123,-0.01953125,0.0166015625,0.0,0.0018035393873253134,0.0,0.0016469013445746825,8.469543835151989e-05,0.0016383748859761993,,,6.604147842662766,4.709853556769293e-08,6.60414784266277,4.7098535567692934e-08,0.0,0.0
1625155245.813001,0.0,0.0,5.7,4.78,0.0,0.0,1.2804877758026123,-0.0048828125,0.005859375,0.0,0.0018035393873253134,0.0,0.0016469013445746825,8.469543835151989e-05,0.0016383748859761993,,,6.604147842662766,4.709853556769293e-08,6.60414784266277,4.7098535567692934e-08,0.0,0.0
1625155245.813001,0.0,0.0,5.7,4.78,0.0,0.0,1.2804877758026123,-0.0048828125,0.005859375,0.0,0.0018035393873253134,0.0,0.0016469013445746825,8.469543835151989e-05,0.0016383748859761993,,,6.604147842662766,4.709853556769293e-08,6.60414784266277,4.7098535567692934e-08,0.0,0.0
1625155245.813001,0.0,0.0,5.7,4.78,0.0,0.0,1.2804877758026123,-0.0048828125,0.005859375,0.0,0.0016089849971395497,0.0,0.0016469013445746825,7.904274287121999e-05,0.0016383748859761993,,,6.604147842662766,4.709853556769293e-08,6.60414784266277,4.7098535567692934e-08,0.0,0.0
1625155245.8730009,0.0,0.0,5.7,4.78,0.0,0.0,1.2804877758026123,-0.0048828125,0.005859375,0.0,0.0016089849971395497,0.0,0.0015786690390478426,7.904274287121999e-05,0.001641103085901505,,,6.6043651523176985,4.8555888378368604e-08,6.604365152317702,4.8555888378368604e-08,0.0,0.0
1625155245.8730009,0.0,0.0,5.7,4.78,0.0,0.0,1.2804877758026123,-0.0048828125,0.005859375,0.0,0.0016089849971395497,0.0,0.0015786690390478426,7.904274287121999e-05,0.001641103085901505,,,6.6043651523176985,4.8555888378368604e-08,6.604365152317702,4.8555888378368604e-08,0.0,0.0
1625155245.8730009,0.0,0.0,5.7,4.78,0.0,0.0,1.2804877758026123,-0.0048828125,0.005859375,0.0,0.0016089849971395497,0.0,0.0015786690390478426,7.904274287121999e-05,0.001641103085901505,,,6.6043651523176985,4.8555888378368604e-08,6.604365152317702,4.8555888378368604e-08,0.0,0.0
1625155245.8730009,0.0,0.0,5.7,4.78,0.0,0.0,1.2804877758026123,-0.0048828125,0.005859375,0.0,0.0016089849971395497,0.0,0.0015786690390478426,7.904274287121999e-05,0.001641103085901505,,,6.6043651523176985,4.8555888378368604e-08,6.604365152317702,4.8555888378368604e-08,0.0,0.0
1625155245.933001,0.0,0.0,5.7,4.78,0.0,0.0,1.2804877758026123,-0.0048828125,0.005859375,0.0,0.0015082619617782643,0.0,0.0014928667452324914,7.423548623227295e-05,0.0016382208073576347,,,6.604584922664079,4.942092924703415e-08,6.604584922664083,4.942092924703415e-08,0.0,0.0
1625155245.933001,0.0,0.0,5.7,4.78,0.0,0.0,1.2804877758026123,-0.0048828125,0.005859375,0.0,0.0015082619617782643,0.0,0.0014928667452324914,7.423548623227295e-05,0.0016382208073576347,,,6.604584922664079,4.942092924703415e-08,6.604584922664083,4.942092924703415e-08,0.0,0.0
1625155245.933001,0.0,0.0,5.7,4.78,0.0,0.0,1.2804877758026123,-0.0048828125,0.005859375,0.0,0.0015082619617782643,0.0,0.0014928667452324914,7.423548623227295e-05,0.0016382208073576347,,,6.604584922664079,4.942092924703415e-08,6.604584922664083,4.942092924703415e-08,0.0,0.0
1625155245.933001,0.0,0.0,5.71,4.78,0.0,0.0,1.2804877758026123,-0.009765625,0.00732421875,0.0,0.0015082619617782643,0.0,0.0014928667452324914,7.423548623227295e-05,0.0016382208073576347,,,6.604584922664079,4.942092924703415e-08,6.604584922664083,4.942092924703415e-08,0.0,0.0
1625155245.933001,0.0,0.0,5.71,4.78,0.0,0.0,1.2804877758026123,-0.009765625,0.00732421875,0.0,0.0015082619617782643,0.0,0.0014928667452324914,7.423548623227295e-05,0.0016382208073576347,,,6.604584922664079,4.942092924703415e-08,6.604584922664083,4.942092924703415e-08,0.0,0.0
1625155245.993001,0.0,0.0,5.71,4.78,0.0,0.0,1.2804877758026123,-0.009765625,0.00732421875,0.0,0.0018343819821936063,0.0,0.001579085884804675,8.452312790170561e-05,0.0016416560805278236,,,6.604806623703779,4.973792816963791e-08,6.604806623703783,4.973792816963791e-08,0.0,0.0
1625155245.993001,0.0,0.0,5.71,4.78,0.0,0.0,1.2804877758026123,-0.009765625,0.00732421875,0.0,0.0018343819821936063,0.0,0.001579085884804675,8.452312790170561e-05,0.0016416560805278236,,,6.604806623703779,4.973792816963791e-08,6.604806623703783,4.973792816963791e-08,0.0,0.0
1625155245.993001,0.0,0.0,5.71,4.78,0.0,0.0,1.2804877758026123,-0.009765625,0.00732421875,0.0,0.0018343819821936063,0.0,0.001579085884804675,8.452312790170561e-05,0.0016416560805278236,,,6.604806623703779,4.973792816963791e-08,6.604806623703783,4.973792816963791e-08,0.0,0.0
1625155245.993001,0.0,0.0,5.71,4.78,0.0,0.0,1.2804877758026123,-0.009765625,0.00732421875,0.0,0.0018343819821936063,0.0,0.001579085884804675,8.452312790170561e-05,0.0016416560805278236,,,6.604806623703779,4.973792816963791e-08,6.604806623703783,4.973792816963791e-08,0.0,0.0
1625155245.993001,0.0,0.0,5.71,4.78,0.0,0.0,1.2804877758026123,-0.009765625,0.00732421875,0.0,0.0018343819821936063,0.0,0.001579085884804675,8.452312790170561e-05,0.0016416560805278236,,,6.604806623703779,4.973792816963791e-08,6.604806623703783,4.973792816963791e-08,0.0,0.0
1625155245.993001,0.0,0.0,5.71,4.78,0.0,0.0,1.2804877758026123,-0.009765625,0.00732421875,0.0,0.0018343819821936063,0.0,0.001617571612097482,8.452312790170561e-05,0.0015616472764358276,,,6.6046757274032295,4.523785350032344e-08,6.604675727403233,4.523785350032344e-08,0.0,0.0
1625155245.993001,0.0,0.0,5.71,4.78,0.0,0.0,1.2804877758026123,-0.009765625,0.00732421875,0.0,0.0018343819821936063,0.0,0.001617571612097482,8.452312790170561e-05,0.0015616472764358276,,,6.6046757274032295,4.523785350032344e-08,6.604675727403233,4.523785350032344e-08,0.0,0.0
1625155245.993001,0.0,0.0,5.71,4.78,0.0,0.0,1.2804877758026123,-0.009765625,0.00732421875,0.0,0.0018343819821936063,0.0,0.001617571612097482,8.452312790170561e-05,0.0015616472764358276,,,6.6046757274032295,4.523785350032344e-08,6.604675727403233,4.523785350032344e-08,0.0,0.0
1625155245.993001,0.0,0.0,5.7,4.79,0.0,0.0,1.2804877758026123,-0.01416015625,0.01123046875,0.0,0.0018343819821936063,0.0,0.001617571612097482,8.452312790170561e-05,0.0015616472764358276,,,6.6046757274032295,4.523785350032344e-08,6.604675727403233,4.523785350032344e-08,0.0,0.0
1625155245.993001,0.0,0.0,5.7,4.79,0.0,0.0,1.2804877758026123,-0.01416015625,0.01123046875,0.0,0.0018343819821936063,0.0,0.001617571612097482,8.452312790170561e-05,0.0015616472764358276,,,6.6046757274032295,4.523785350032344e-08,6.604675727403233,4.523785350032344e-08,0.0,0.0
1625155246.079001,0.0,0.0,5.7,4.79,0.0,0.0,1.2804877758026123,-0.01416015625,0.01123046875,0.0,0.0018674924123070126,0.0,0.001699340492309907,0.00013544829588357218,0.0016489198565499078,,,6.605045685204494,4.860444119972572e-08,6.605045685204497,4.860444119972572e-08,0.0,0.0
1625155246.079001,0.0,0.0,5.7,4.79,0.0,0.0,1.2804877758026123,-0.01416015625,0.01123046875,0.0,0.0018674924123070126,0.0,0.001699340492309907,0.00013544829588357218,0.0016489198565499078,,,6.605045685204494,4.860444119972572e-08,6.605045685204497,4.860444119972572e-08,0.0,0.0
1625155246.079001,0.0,0.0,5.7,4.79,0.0,0.0,1.2804877758026123,-0.01416015625,0.01123046875,0.0,0.0018674924123070126,0.0,0.001699340492309907,0.00013544829588357218,0.0016489198565499078,,,6.605045685204494,4.860444119972572e-08,6.605045685204497,4.860444119972572e-08,0.0,0.0
1625155246.079001,0.0,0.0,5.7,4.79,0.0,0.0,1.2804877758026123,-0.01416015625,0.01123046875,0.0,0.0018674924123070126,0.0,0.001699340492309907,0.00013544829588357218,0.0016489198565499078,,,6.605045685204494,4.860444119972572e-08,6.605045685204497,4.860444119972572e-08,0.0,0.0
1625155246.079001,0.0,0.0,5.7,4.79,0.0,0.0,1.2804877758026123,-0.01416015625,0.01123046875,0.0,0.0018674924123070126,0.0,0.001699340492309907,0.00013544829588357218,0.0016489198565499078,,,6.605045685204494,4.860444119972572e-08,6.605045685204497,4.860444119972572e-08,0.0,0.0
1625155246.1130009,0.0,0.0,5.7,4.79,0.0,0.0,1.2804877758026123,-0.01416015625,0.01123046875,0.0,0.0017990127035416043,0.0,0.0016851644599231218,8.603476109034116e-05,0.0016177465249272486,,,6.60510983254882,4.72060580679284e-08,6.605109832548823,4.72060580679284e-08,0.0,0.0
1625155246.1130009,0.0,0.0,5.7,4.79,0.0,0.0,1.2804877758026123,-0.01416015625,0.01123046875,0.0,0.0017990127035416043,0.0,0.0016851644599231218,8.603476109034116e-05,0.0016177465249272486,,,6.60510983254882,4.72060580679284e-08,6.605109832548823,4.72060580679284e-08,0.0,0.0
1625155246.1130009,0.0,0.0,5.7,4.79,0.0,0.0,1.2804877758026123,-0.01416015625,0.01123046875,0.0,0.0017990127035416043,0.0,0.0016851644599231218,8.603476109034116e-05,0.0016177465249272486,,,6.60510983254882,4.72060580679284e-08,6.605109832548823,4.72060580679284e-08,0.0,0.0
1625155246.1130009,0.0,0.0,5.69,4.78,0.0,0.0,1.2804877758026123,-0.01416015625,0.01123046875,0.0,0.0017990127035416043,0.0,0.0016851644599231218,8.603476109034116e-05,0.0016177465249272486,,,6.60510983254882,4.72060580679284e-08,6.605109832548823,4.72060580679284e-08,0.0,0.0
1625155246.1130009,0.0,0.0,5.69,4.78,0.0,0.0,1.1585365533828735,-0.01123046875,0.01318359375,0.0,0.0017990127035416043,0.0,0.0016851644599231218,8.603476109034116e-05,0.0016177465249272486,,,6.60510983254882,4.72060580679284e-08,6.605109832548823,4.72060580679284e-08,0.0,0.0
1625155246.183001,0.0,0.0,5.69,4.78,0.0,0.0,1.1585365533828735,-0.01123046875,0.01318359375,0.0,0.001856276192421869,0.0,0.0017155501003802672,0.00010599733310534216,0.001662577526359471,,,6.60539031217957,5.005012510661977e-08,6.605390312179574,5.005012510661977e-08,0.0,0.0
1625155246.183001,0.0,0.0,5.69,4.78,0.0,0.0,1.1585365533828735,-0.01123046875,0.01318359375,0.0,0.001856276192421869,0.0,0.0017155501003802672,0.00010599733310534216,0.001662577526359471,,,6.60539031217957,5.005012510661977e-08,6.605390312179574,5.005012510661977e-08,0.0,0.0
1625155246.183001,0.0,0.0,5.69,4.78,0.0,0.0,1.1585365533828735,-0.01123046875,0.01318359375,0.0,0.001856276192421869,0.0,0.0017155501003802672,0.00010599733310534216,0.001662577526359471,,,6.60539031217957,5.005012510661977e-08,6.605390312179574,5.005012510661977e-08,0.0,0.0
1625155246.183001,0.0,0.0,5.69,4.78,0.0,0.0,1.1585365533828735,-0.01123046875,0.01318359375,0.0,0.001856276192421869,0.0,0.0017155501003802672,0.00010599733310534216,0.001662577526359471,,,6.60539031217957,5.005012510661977e-08,6.605390312179574,5.005012510661977e-08,0.0,0.0
1625155246.183001,0.0,0.0,5.69,4.78,0.0,0.0,1.1585365533828735,-0.01123046875,0.01318359375,0.0,0.001856276192421869,0.0,0.0017155501003802672,0.00010599733310534216,0.001662577526359471,,,6.60539031217957,5.005012510661977e-08,6.605390312179574,5.005012510661977e-08,0.0,0.0
1625155246.233001,0.0,0.0,5.69,4.78,0.0,0.0,1.1585365533828735,-0.01123046875,0.01318359375,0.0,0.0017582045301308858,0.0,0.0016689699304038483,8.487650971024124e-05,0.0016532115140394093,,,6.605549537667969,5.01290257222966e-08,6.605549537667972,5.01290257222966e-08,0.0,0.0
1625155246.233001,0.0,0.0,5.69,4.78,0.0,0.0,1.1585365533828735,-0.01123046875,0.01318359375,0.0,0.0017582045301308858,0.0,0.0016689699304038483,8.487650971024124e-05,0.0016532115140394093,,,6.605549537667969,5.01290257222966e-08,6.605549537667972,5.01290257222966e-08,0.0,0.0
1625155246.233001,0.0,0.0,5.69,4.78,0.0,0.0,1.1585365533828735,-0.01123046875,0.01318359375,0.0,0.0017582045301308858,0.0,0.0016689699304038483,8.487650971024124e-05,0.0016532115140394093,,,6.605549537667969,5.01290257222966e-08,6.605549537667972,5.01290257222966e-08,0.0,0.0
1625155246.233001,0.0,0.0,5.69,4.8,0.0,0.0,1.1585365533828735,-0.01123046875,0.01318359375,0.0,0.0017582045301308858,0.0,0.0016689699304038483,8.487650971024124e-05,0.0016532115140394093,,,6.605549537667969,5.01290257222966e-08,6.605549537667972,5.01290257222966e-08,0.0,0.0
1625155246.233001,0.0,0.0,5.69,4.8,0.0,0.0,1.4634146690368652,-0.01953125,0.0205078125,0.0,0.0017582045301308858,0.0,0.0016689699304038483,8.487650971024124e-05,0.0016532115140394093,,,6.605549537667969,5.01290257222966e-08,6.605549537667972,5.01290257222966e-08,0.0,0.0
1625155246.233001,0.0,0.0,5.69,4.8,0.0,0.0,1.4634146690368652,-0.01953125,0.0205078125,0.0,0.0017582045301308858,0.0,0.0016521180543525762,8.487650971024124e-05,0.0015698780072389252,,,6.605424575924323,4.556115286259115e-08,6.605424575924326,4.556115286259115e-08,0.0,0.0
1625155246.233001,0.0,0.0,5.69,4.8,0.0,0.0,1.4634146690368652,-0.01953125,0.0205078125,0.0,0.0017582045301308858,0.0,0.0016521180543525762,8.487650971024124e-05,0.0015698780072389252,,,6.605424575924323,4.556115286259115e-08,6.605424575924326,4.556115286259115e-08,0.0,0.0
1625155246.233001,0.0,0.0,5.69,4.8,0.0,0.0,1.4634146690368652,-0.01953125,0.0205078125,0.0,0.0017582045301308858,0.0,0.0016521180543525762,8.487650971024124e-05,0.0015698780072389252,,,6.605424575924323,4.556115286259115e-08,6.605424575924326,4.556115286259115e-08,0.0,0.0
1625155246.233001,0.0,0.0,5.69,4.8,0.0,0.0,1.4634146690368652,-0.01953125,0.0205078125,0.0,0.0017582045301308858,0.0,0.0016521180543525762,8.487650971024124e-05,0.0015698780072389252,,,6.605424575924323,4.556115286259115e-08,6.605424575924326,4.556115286259115e-08,0.0,0.0
1625155246.233001,0.0,0.0,5.69,4.8,0.0,0.0,1.4634146690368652,-0.01953125,0.0205078125,0.0,0.0017582045301308858,0.0,0.0016521180543525762,8.487650971024124e-05,0.0015698780072389252,,,6.605424575924323,4.556115286259115e-08,6.605424575924326,4.556115286259115e-08,0.0,0.0
1625155246.293001,0.0,0.0,5.69,4.8,0.0,0.0,1.4634146690368652,-0.01953125,0.0205078125,0.0,0.0019982963078587525,0.0,0.0017439123955316853,9.208484117715383e-05,0.0015911758105669825,,,6.605634806286673,4.6587776974529565e-08,6.605634806286677,4.6587776974529565e-08,0.0,0.0
1625155246.293001,0.0,0.0,5.69,4.8,0.0,0.0,1.4634146690368652,-0.01953125,0.0205078125,0.0,0.0019982963078587525,0.0,0.0017439123955316853,9.208484117715383e-05,0.0015911758105669825,,,6.605634806286673,4.6587776974529565e-08,6.605634806286677,4.6587776974529565e-08,0.0,0.0
1625155246.293001,0.0,0.0,5.68,4.81,0.0,0.0,1.402438998222351,-0.01171875,0.0087890625,0.0,0.0019982963078587525,0.0,0.0017439123955316853,9.208484117715383e-05,0.0015911758105669825,,,6.605634806286673,4.6587776974529565e-08,6.605634806286677,4.6587776974529565e-08,0.0,0.0
1625155246.293001,0.0,0.0,5.68,4.81,0.0,0.0,1.402438998222351,-0.01171875,0.0087890625,0.0,0.0019982963078587525,0.0,0.0017439123955316853,9.208484117715383e-05,0.0015911758105669825,,,6.605634806286673,4.6587776974529565e-08,6.605634806286677,4.6587776974529565e-08,0.0,0.0
1625155246.293001,0.0,0.0,5.68,4.81,0.0,0.0,1.402438998222351,-0.01171875,0.0087890625,0.0,0.0019982963078587525,0.0,0.0017439123955316853,9.208484117715383e-05,0.0015911758105669825,,,6.605634806286673,4.6587776974529565e-08,6.605634806286677,4.6587776974529565e-08,0.0,0.0
1625155246.371001,0.0,0.0,5.68,4.81,0.0,0.0,1.402438998222351,-0.01171875,0.0087890625,0.0,0.001641774550443091,0.0,0.0016546868631005566,0.00011380690508567214,0.0016573037929753422,,,6.605958828268461,5.096022853091323e-08,6.605958828268465,5.096022853091323e-08,0.0,0.0
1625155246.371001,0.0,0.0,5.68,4.81,0.0,0.0,1.402438998222351,-0.01171875,0.0087890625,0.0,0.001641774550443091,0.0,0.0016546868631005566,0.00011380690508567214,0.0016573037929753422,,,6.605958828268461,5.096022853091323e-08,6.605958828268465,5.096022853091323e-08,0.0,0.0
1625155246.371001,0.0,0.0,5.68,4.81,0.0,0.0,1.402438998222351,-0.01171875,0.0087890625,0.0,0.001641774550443091,0.0,0.0016546868631005566,0.00011380690508567214,0.0016573037929753422,,,6.605958828268461,5.096022853091323e-08,6.605958828268465,5.096022853091323e-08,0.0,0.0
1625155246.371001,0.0,0.0,5.68,4.81,0.0,0.0,1.402438998222351,-0.01171875,0.0087890625,0.0,0.001641774550443091,0.0,0.0016546868631005566,0.00011380690508567214,0.0016573037929753422,,,6.605958828268461,5.096022853091323e-08,6.605958828268465,5.096022853091323e-08,0.0,0.0
1625155246.371001,0.0,0.0,5.68,4.81,0.0,0.0,1.402438998222351,-0.01171875,0.0087890625,0.0,0.001641774550443091,0.0,0.0016546868631005566,0.00011380690508567214,0.0016573037929753422,,,6.605958828268461,5.096022853091323e-08,6.605958828268465,5.096022853091323e-08,0.0,0.0
1625155246.413001,0.0,0.0,5.68,4.81,0.0,0.0,1.402438998222351,-0.01171875,0.0087890625,0.0,0.0015686020365429146,0.0,0.0015678101101035354,7.865067632414696e-05,0.0016319141303531765,,,6.606069853322752,4.9786719289901845e-08,6.606069853322755,4.9786719289901845e-08,0.0,0.0
1625155246.413001,0.0,0.0,5.68,4.81,0.0,0.0,1.402438998222351,-0.01171875,0.0087890625,0.0,0.0015686020365429146,0.0,0.0015678101101035354,7.865067632414696e-05,0.0016319141303531765,,,6.606069853322752,4.9786719289901845e-08,6.606069853322755,4.9786719289901845e-08,0.0,0.0
1625155246.413001,0.0,0.0,5.68,4.81,0.0,0.0,1.402438998222351,-0.01171875,0.0087890625,0.0,0.0015686020365429146,0.0,0.0015678101101035354,7.865067632414696e-05,0.0016319141303531765,,,6.606069853322752,4.9786719289901845e-08,6.606069853322755,4.9786719289901845e-08,0.0,0.0
1625155246.413001,0.0,0.0,5.68,4.8,0.0,0.0,1.2804877758026123,-0.01806640625,0.01171875,0.0,0.0015686020365429146,0.0,0.0015678101101035354,7.865067632414696e-05,0.0016319141303531765,,,6.606069853322752,4.9786719289901845e-08,6.606069853322755,4.9786719289901845e-08,0.0,0.0
1625155246.413001,0.0,0.0,5.68,4.8,0.0,0.0,1.2804877758026123,-0.01806640625,0.01171875,0.0,0.0015686020365429146,0.0,0.0015678101101035354,7.865067632414696e-05,0.0016319141303531765,,,6.606069853322752,4.9786719289901845e-08,6.606069853322755,4.9786719289901845e-08,0.0,0.0
1625155246.4750009,0.0,0.0,5.68,4.8,0.0,0.0,1.2804877758026123,-0.01806640625,0.01171875,0.0,0.0017513953445517359,0.0,0.0015960817880921294,8.505141691747008e-05,0.0016443193913393828,,,6.60630167086259,5.058569857072474e-08,6.606301670862593,5.058569857072474e-08,0.0,0.0
1625155246.4750009,0.0,0.0,5.68,4.8,0.0,0.0,1.2804877758026123,-0.01806640625,0.01171875,0.0,0.0017513953445517359,0.0,0.0015960817880921294,8.505141691747008e-05,0.0016443193913393828,,,6.60630167086259,5.058569857072474e-08,6.606301670862593,5.058569857072474e-08,0.0,0.0
1625155246.4750009,0.0,0.0,5.68,4.8,0.0,0.0,1.2804877758026123,-0.01806640625,0.01171875,0.0,0.0017513953445517359,0.0,0.0015960817880921294,8.505141691747008e-05,0.0016443193913393828,,,6.60630167086259,5.058569857072474e-08,6.606301670862593,5.058569857072474e-08,0.0,0.0
1625155246.4750009,0.0,0.0,5.68,4.8,0.0,0.0,1.2804877758026123,-0.01806640625,0.01171875,0.0,0.0017513953445517359,0.0,0.0015960817880921294,8.505141691747008e-05,0.0016443193913393828,,,6.60630167086259,5.058569857072474e-08,6.606301670862593,5.058569857072474e-08,0.0,0.0
1625155246.4750009,0.0,0.0,5.68,4.8,0.0,0.0,1.2804877758026123,-0.01806640625,0.01171875,0.0,0.0017513953445517359,0.0,0.0015960817880921294,8.505141691747008e-05,0.0016443193913393828,,,6.60630167086259,5.058569857072474e-08,6.606301670862593,5.058569857072474e-08,0.0,0.0
1625155246.533061,0.0,0.0,5.68,4.8,0.0,0.0,1.2804877758026123,-0.01806640625,0.01171875,0.0,0.0016449704802916141,0.0,0.0015504547341231212,7.902887126657545e-05,0.0016425375443891999,,,6.606511049481248,5.093170653883945e-08,6.606511049481251,5.0931706538839435e-08,0.0,0.0
1625155246.533061,0.0,0.0,5.68,4.8,0.0,0.0,1.2804877758026123,-0.01806640625,0.01171875,0.0,0.0016449704802916141,0.0,0.0015504547341231212,7.902887126657545e-05,0.0016425375443891999,,,6.606511049481248,5.093170653883945e-08,6.606511049481251,5.0931706538839435e-08,0.0,0.0
1625155246.533061,0.0,0.0,5.69,4.81,0.0,0.0,1.2804877758026123,-0.01806640625,0.01171875,0.0,0.0016449704802916141,0.0,0.0015504547341231212,7.902887126657545e-05,0.0016425375443891999,,,6.606511049481248,5.093170653883945e-08,6.606511049481251,5.0931706538839435e-08,0.0,0.0
1625155246.533061,0.0,0.0,5.69,4.81,0.0,0.0,1.2804877758026123,-0.0107421875,0.00439453125,0.0,0.0016449704802916141,0.0,0.0015504547341231212,7.902887126657545e-05,0.0016425375443891999,,,6.606511049481248,5.093170653883945e-08,6.606511049481251,5.0931706538839435e-08,0.0,0.0
1625155246.533061,0.0,0.0,5.69,4.81,0.0,0.0,1.2804877758026123,-0.0107421875,0.00439453125,0.0,0.0016449704802916141,0.0,0.0015504547341231212,7.902887126657545e-05,0.0016425375443891999,,,6.606511049481248,5.093170653883945e-08,6.606511049481251,5.0931706538839435e-08,0.0,0.0
1625155246.579061,0.0,0.0,5.69,4.81,0.0,0.0,1.2804877758026123,-0.0107421875,0.00439453125,0.0,0.0017427626532930216,0.0,0.0016044591728127536,0.00016204188171208805,0.0016737309097546106,,,6.6066530570632755,4.979866716819322e-08,6.606653057063279,4.979866716819321e-08,0.0,0.0
1625155246.579061,0.0,0.0,5.69,4.81,0.0,0.0,1.2804877758026123,-0.0107421875,0.00439453125,0.0,0.0017427626532930216,0.0,0.0016044591728127536,0.00016204188171208805,0.0016737309097546106,,,6.6066530570632755,4.979866716819322e-08,6.606653057063279,4.979866716819321e-08,0.0,0.0
1625155246.579061,0.0,0.0,5.69,4.81,0.0,0.0,1.2804877758026123,-0.0107421875,0.00439453125,0.0,0.0017427626532930216,0.0,0.0016044591728127536,0.00016204188171208805,0.0016737309097546106,,,6.6066530570632755,4.979866716819322e-08,6.606653057063279,4.979866716819321e-08,0.0,0.0
1625155246.579061,0.0,0.0,5.69,4.81,0.0,0.0,1.2804877758026123,-0.0107421875,0.00439453125,0.0,0.0017427626532930216,0.0,0.0016044591728127536,0.00016204188171208805,0.0016737309097546106,,,6.6066530570632755,4.979866716819322e-08,6.606653057063279,4.979866716819321e-08,0.0,0.0
1625155246.579061,0.0,0.0,5.69,4.81,0.0,0.0,1.2804877758026123,-0.0107421875,0.00439453125,0.0,0.0017427626532930216,0.0,0.0016044591728127536,0.00016204188171208805,0.0016737309097546106,,,6.6066530570632755,4.979866716819322e-08,6.606653057063279,4.979866716819321e-08,0.0,0.0
1625155246.593061,0.0,0.0,5.69,4.81,0.0,0.0,1.2804877758026123,-0.0107421875,0.00439453125,0.0,0.0017140921065647093,0.0,0.0015943080769015737,8.136949157669893e-05,0.0016088037866064837,,,6.606601065210133,4.6261405541585236e-08,6.606601065210136,4.626140554158523e-08,0.0,0.0
1625155246.593061,0.0,0.0,5.69,4.81,0.0,0.0,1.2804877758026123,-0.0107421875,0.00439453125,0.0,0.0017140921065647093,0.0,0.0015943080769015737,8.136949157669893e-05,0.0016088037866064837,,,6.606601065210133,4.6261405541585236e-08,6.606601065210136,4.626140554158523e-08,0.0,0.0
1625155246.593061,0.0,0.0,5.7,4.8,0.0,0.0,1.2804877758026123,-0.0107421875,0.00439453125,0.0,0.0017140921065647093,0.0,0.0015943080769015737,8.136949157669893e-05,0.0016088037866064837,,,6.606601065210133,4.6261405541585236e-08,6.606601065210136,4.626140554158523e-08,0.0,0.0
1625155246.593061,0.0,0.0,5.7,4.8,0.0,0.0,1.2804877758026123,-0.0107421875,0.00439453125,0.0,0.0017140921065647093,0.0,0.0015943080769015737,8.136949157669893e-05,0.0016088037866064837,,,6.606601065210133,4.6261405541585236e-08,6.606601065210136,4.626140554158523e-08,0.0,0.0
1625155246.593061,0.0,0.0,5.7,4.8,0.0,0.0,1.3414634466171265,-0.0068359375,0.01025390625,0.0,0.0017140921065647093,0.0,0.0015943080769015737,8.136949157669893e-05,0.0016088037866064837,,,6.606601065210133,4.6261405541585236e-08,6.606601065210136,4.626140554158523e-08,0.0,0.0
1625155246.6830611,0.0,0.0,5.7,4.8,0.0,0.0,1.3414634466171265,-0.0068359375,0.01025390625,0.0,0.0018201671178763134,0.0,0.0016650435079952257,0.00013858952130368094,0.0016997407266776032,,,6.607004143660405,5.129731420312439e-08,6.607004143660409,5.12973142031244e-08,0.0,0.0
1625155246.6830611,0.0,0.0,5.7,4.8,0.0,0.0,1.3414634466171265,-0.0068359375,0.01025390625,0.0,0.0018201671178763134,0.0,0.0016650435079952257,0.00013858952130368094,0.0016997407266776032,,,6.607004143660405,5.129731420312439e-08,6.607004143660409,5.12973142031244e-08,0.0,0.0
1625155246.6830611,0.0,0.0,5.7,4.8,0.0,0.0,1.3414634466171265,-0.0068359375,0.01025390625,0.0,0.0018201671178763134,0.0,0.0016650435079952257,0.00013858952130368094,0.0016997407266776032,,,6.607004143660405,5.129731420312439e-08,6.607004143660409,5.12973142031244e-08,0.0,0.0
1625155246.6830611,0.0,0.0,5.7,4.8,0.0,0.0,1.3414634466171265,-0.0068359375,0.01025390625,0.0,0.0018201671178763134,0.0,0.0016650435079952257,0.00013858952130368094,0.0016997407266776032,,,6.607004143660405,5.129731420312439e-08,6.607004143660409,5.12973142031244e-08,0.0,0.0
1625155246.6830611,0.0,0.0,5.7,4.8,0.0,0.0,1.3414634466171265,-0.0068359375,0.01025390625,0.0,0.001760703690032341,0.0,0.0016650435079952257,8.374715470309531e-05,0.0016997407266776032,,,6.607004143660405,5.129731420312439e-08,6.607004143660409,5.12973142031244e-08,0.0,0.0
1625155246.713061,0.0,0.0,5.7,4.8,0.0,0.0,1.3414634466171265,-0.0068359375,0.01025390625,0.0,0.001760703690032341,0.0,0.0016463968850594216,8.374715470309531e-05,0.0016556216231895819,,,6.607041747903612,4.8934137953786145e-08,6.607041747903615,4.893413795378615e-08,0.0,0.0
1625155246.713061,0.0,0.0,5.7,4.8,0.0,0.0,1.3414634466171265,-0.0068359375,0.01025390625,0.0,0.001760703690032341,0.0,0.0016463968850594216,8.374715470309531e-05,0.0016556216231895819,,,6.607041747903612,4.8934137953786145e-08,6.607041747903615,4.893413795378615e-08,0.0,0.0
1625155246.713061,0.0,0.0,5.69,4.8,0.0,0.0,1.3414634466171265,-0.0068359375,0.01025390625,0.0,0.001760703690032341,0.0,0.0016463968850594216,8.374715470309531e-05,0.0016556216231895819,,,6.607041747903612,4.8934137953786145e-08,6.607041747903615,4.893413795378615e-08,0.0,0.0
1625155246.713061,0.0,0.0,5.69,4.8,0.0,0.0,1.3414634466171265,-0.00634765625,0.0078125,0.0,0.001760703690032341,0.0,0.0016463968850594216,8.374715470309531e-05,0.0016556216231895819,,,6.607041747903612,4.8934137953786145e-08,6.607041747903615,4.893413795378615e-08,0.0,0.0
1625155246.787061,0.0,0.0,5.69,4.8,0.0,0.0,1.3414634466171265,-0.00634765625,0.0078125,0.0,0.001677912344258029,0.0,0.0016146228777467757,0.00010494986168210268,0.0017009896022294336,,,6.607351186296142,5.1719582841902226e-08,6.607351186296145,5.171958284190224e-08,0.0,0.0
1625155246.787061,0.0,0.0,5.69,4.8,0.0,0.0,1.3414634466171265,-0.00634765625,0.0078125,0.0,0.001677912344258029,0.0,0.0016146228777467757,0.00010494986168210268,0.0017009896022294336,,,6.607351186296142,5.1719582841902226e-08,6.607351186296145,5.171958284190224e-08,0.0,0.0
1625155246.787061,0.0,0.0,5.69,4.8,0.0,0.0,1.3414634466171265,-0.00634765625,0.0078125,0.0,0.001677912344258029,0.0,0.0016146228777467757,0.00010494986168210268,0.0017009896022294336,,,6.607351186296142,5.1719582841902226e-08,6.607351186296145,5.171958284190224e-08,0.0,0.0
1625155246.787061,0.0,0.0,5.69,4.8,0.0,0.0,1.3414634466171265,-0.00634765625,0.0078125,0.0,0.001677912344258029,0.0,0.0016146228777467757,0.00010494986168210268,0.0017009896022294336,,,6.607351186296142,5.1719582841902226e-08,6.607351186296145,5.171958284190224e-08,0.0,0.0
1625155246.787061,0.0,0.0,5.69,4.8,0.0,0.0,1.3414634466171265,-0.00634765625,0.0078125,0.0,0.001677912344258029,0.0,0.0016146228777467757,0.00010494986168210268,0.0017009896022294336,,,6.607351186296142,5.1719582841902226e-08,6.607351186296145,5.171958284190224e-08,0.0,0.0
1625155246.833061,0.0,0.0,5.69,4.8,0.0,0.0,1.3414634466171265,-0.00634765625,0.0078125,0.0,0.0015959085280220792,0.0,0.0015451134604107307,7.806374408665102e-05,0.001674150737639917,,,6.607485442572645,5.066313452026202e-08,6.607485442572648,5.0663134520262034e-08,0.0,0.0
1625155246.833061,0.0,0.0,5.69,4.8,0.0,0.0,1.3414634466171265,-0.00634765625,0.0078125,0.0,0.0015959085280220792,0.0,0.0015451134604107307,7.806374408665102e-05,0.001674150737639917,,,6.607485442572645,5.066313452026202e-08,6.607485442572648,5.0663134520262034e-08,0.0,0.0
1625155246.833061,0.0,0.0,5.69,4.8,0.0,0.0,1.2804877758026123,-0.0009765625,0.0029296875,0.0,0.0015959085280220792,0.0,0.0015451134604107307,7.806374408665102e-05,0.001674150737639917,,,6.607485442572645,5.066313452026202e-08,6.607485442572648,5.0663134520262034e-08,0.0,0.0
1625155246.833061,0.0,0.0,5.69,4.8,0.0,0.0,1.2804877758026123,-0.0009765625,0.0029296875,0.0,0.0015959085280220792,0.0,0.0015451134604107307,7.806374408665102e-05,0.001674150737639917,,,6.607485442572645,5.066313452026202e-08,6.607485442572648,5.0663134520262034e-08,0.0,0.0
1625155246.833061,0.0,0.0,5.69,4.8,0.0,0.0,1.2804877758026123,-0.0009765625,0.0029296875,0.0,0.0015959085280220792,0.0,0.0015451134604107307,7.806374408665102e-05,0.001674150737639917,,,6.607485442572645,5.066313452026202e-08,6.607485442572648,5.0663134520262034e-08,0.0,0.0
1625155246.871061,0.0,0.0,5.69,4.8,0.0,0.0,1.2804877758026123,-0.0009765625,0.0029296875,0.0,0.0015518591169024873,0.0,0.0015197456592120889,0.00013737585425327797,0.0016809963241667582,,,6.6075772986604,4.8823381279648886e-08,6.607577298660403,4.88233812796489e-08,0.0,0.0
1625155246.871061,0.0,0.0,5.69,4.8,0.0,0.0,1.2804877758026123,-0.0009765625,0.0029296875,0.0,0.0015518591169024873,0.0,0.0015197456592120889,0.00013737585425327797,0.0016809963241667582,,,6.6075772986604,4.8823381279648886e-08,6.607577298660403,4.88233812796489e-08,0.0,0.0
1625155246.871061,0.0,0.0,5.69,4.8,0.0,0.0,1.2804877758026123,-0.0009765625,0.0029296875,0.0,0.0015518591169024873,0.0,0.0015197456592120889,0.00013737585425327797,0.0016809963241667582,,,6.6075772986604,4.8823381279648886e-08,6.607577298660403,4.88233812796489e-08,0.0,0.0
1625155246.871061,0.0,0.0,5.69,4.8,0.0,0.0,1.2804877758026123,-0.0009765625,0.0029296875,0.0,0.0015518591169024873,0.0,0.0015197456592120889,0.00013737585425327797,0.0016809963241667582,,,6.6075772986604,4.8823381279648886e-08,6.607577298660403,4.88233812796489e-08,0.0,0.0
1625155246.871061,0.0,0.0,5.69,4.8,0.0,0.0,1.2804877758026123,-0.0009765625,0.0029296875,0.0,0.0015518591169024873,0.0,0.0015197456592120889,0.00013737585425327797,0.0016809963241667582,,,6.6075772986604,4.8823381279648886e-08,6.607577298660403,4.88233812796489e-08,0.0,0.0
1625155246.8930612,0.0,0.0,5.69,4.8,0.0,0.0,1.2804877758026123,-0.0009765625,0.0029296875,0.0,0.0015139920350702094,0.0,0.0014739764985492762,7.467855267093425e-05,0.001621660813848134,,,6.607573714763032,4.594151578378677e-08,6.607573714763036,4.594151578378679e-08,0.0,0.0
1625155246.8930612,0.0,0.0,5.69,4.8,0.0,0.0,1.2804877758026123,-0.0009765625,0.0029296875,0.0,0.0015139920350702094,0.0,0.0014739764985492762,7.467855267093425e-05,0.001621660813848134,,,6.607573714763032,4.594151578378677e-08,6.607573714763036,4.594151578378679e-08,0.0,0.0
1625155246.8930612,0.0,0.0,5.68,4.8,0.0,0.0,1.2804877758026123,-0.0009765625,0.0029296875,0.0,0.0015139920350702094,0.0,0.0014739764985492762,7.467855267093425e-05,0.001621660813848134,,,6.607573714763032,4.594151578378677e-08,6.607573714763036,4.594151578378679e-08,0.0,0.0
1625155246.8930612,0.0,0.0,5.68,4.8,0.0,0.0,1.3414634466171265,-0.01953125,0.017578125,0.0,0.0015139920350702094,0.0,0.0014739764985492762,7.467855267093425e-05,0.001621660813848134,,,6.607573714763032,4.594151578378677e-08,6.607573714763036,4.594151578378679e-08,0.0,0.0
1625155246.8930612,0.0,0.0,5.68,4.8,0.0,0.0,1.3414634466171265,-0.01953125,0.017578125,0.0,0.0015139920350702094,0.0,0.0014739764985492762,7.467855267093425e-05,0.001621660813848134,,,6.607573714763032,4.594151578378677e-08,6.607573714763036,4.594151578378679e-08,0.0,0.0
1625155246.975061,0.0,0.0,5.68,4.8,0.0,0.0,1.3414634466171265,-0.01953125,0.017578125,0.0,0.0016583621931222283,0.0,0.0015231433055167766,0.00011330268471512147,0.0016815820504223168,,,6.6079246893893675,4.9258930207508456e-08,6.607924689389371,4.925893020750847e-08,0.0,0.0
1625155246.975061,0.0,0.0,5.68,4.8,0.0,0.0,1.3414634466171265,-0.01953125,0.017578125,0.0,0.0016583621931222283,0.0,0.0015231433055167766,0.00011330268471512147,0.0016815820504223168,,,6.6079246893893675,4.9258930207508456e-08,6.607924689389371,4.925893020750847e-08,0.0,0.0
1625155246.975061,0.0,0.0,5.68,4.8,0.0,0.0,1.3414634466171265,-0.01953125,0.017578125,0.0,0.0016583621931222283,0.0,0.0015231433055167766,0.00011330268471512147,0.0016815820504223168,,,6.6079246893893675,4.9258930207508456e-08,6.607924689389371,4.925893020750847e-08,0.0,0.0
1625155246.975061,0.0,0.0,5.68,4.8,0.0,0.0,1.3414634466171265,-0.01953125,0.017578125,0.0,0.0016583621931222283,0.0,0.0015231433055167766,0.00011330268471512147,0.0016815820504223168,,,6.6079246893893675,4.9258930207508456e-08,6.607924689389371,4.925893020750847e-08,0.0,0.0
1625155246.975061,0.0,0.0,5.68,4.8,0.0,0.0,1.3414634466171265,-0.01953125,0.017578125,0.0,0.0016583621931222283,0.0,0.0015231433055167766,0.00011330268471512147,0.0016815820504223168,,,6.6079246893893675,4.9258930207508456e-08,6.607924689389371,4.925893020750847e-08,0.0,0.0
1625155247.013061,0.0,0.0,5.68,4.8,0.0,0.0,1.3414634466171265,-0.01953125,0.017578125,0.0,0.0015910179213977018,0.0,0.001494798685468738,7.604512242050981e-05,0.0016446079206356215,,,6.608011315160788,4.761449875068811e-08,6.608011315160792,4.761449875068813e-08,0.0,0.0
1625155247.013061,0.0,0.0,5.68,4.8,0.0,0.0,1.3414634466171265,-0.01953125,0.017578125,0.0,0.0015910179213977018,0.0,0.001494798685468738,7.604512242050981e-05,0.0016446079206356215,,,6.608011315160788,4.761449875068811e-08,6.608011315160792,4.761449875068813e-08,0.0,0.0
1625155247.013061,0.0,0.0,5.69,4.8,0.0,0.0,1.3414634466171265,-0.01953125,0.017578125,0.0,0.0015910179213977018,0.0,0.001494798685468738,7.604512242050981e-05,0.0016446079206356215,,,6.608011315160788,4.761449875068811e-08,6.608011315160792,4.761449875068813e-08,0.0,0.0
1625155247.013061,0.0,0.0,5.69,4.8,0.0,0.0,1.3414634466171265,-0.0126953125,0.0009765625,0.0,0.0015910179213977018,0.0,0.001494798685468738,7.604512242050981e-05,0.0016446079206356215,,,6.608011315160788,4.761449875068811e-08,6.608011315160792,4.761449875068813e-08,0.0,0.0
1625155247.013061,0.0,0.0,5.69,4.8,0.0,0.0,1.3414634466171265,-0.0126953125,0.0009765625,0.0,0.0015910179213977018,0.0,0.001494798685468738,7.604512242050981e-05,0.0016446079206356215,,,6.608011315160788,4.761449875068811e-08,6.608011315160792,4.761449875068813e-08,0.0,0.0
1625155247.079061,0.0,0.0,5.69,4.8,0.0,0.0,1.3414634466171265,-0.0126953125,0.0009765625,0.0,0.0018317037989027964,0.0,0.0015949379187226954,9.38663375860689e-05,0.0016663809431184927,,,6.608268954480129,4.891163002201542e-08,6.608268954480133,4.8911630022015435e-08,0.0,0.0
1625155247.079061,0.0,0.0,5.69,4.8,0.0,0.0,1.3414634466171265,-0.0126953125,0.0009765625,0.0,0.0018317037989027964,0.0,0.0015949379187226954,9.38663375860689e-05,0.0016663809431184927,,,6.608268954480129,4.891163002201542e-08,6.608268954480133,4.8911630022015435e-08,0.0,0.0
1625155247.079061,0.0,0.0,5.69,4.8,0.0,0.0,1.3414634466171265,-0.0126953125,0.0009765625,0.0,0.0018317037989027964,0.0,0.0015949379187226954,9.38663375860689e-05,0.0016663809431184927,,,6.608268954480129,4.891163002201542e-08,6.608268954480133,4.8911630022015435e-08,0.0,0.0
1625155247.079061,0.0,0.0,5.69,4.8,0.0,0.0,1.3414634466171265,-0.0126953125,0.0009765625,0.0,0.0018317037989027964,0.0,0.0015949379187226954,9.38663375860689e-05,0.0016663809431184927,,,6.608268954480129,4.891163002201542e-08,6.608268954480133,4.8911630022015435e-08,0.0,0.0
1625155247.079061,0.0,0.0,5.69,4.8,0.0,0.0,1.3414634466171265,-0.0126953125,0.0009765625,0.0,0.0017277436661688984,0.0,0.0015949379187226954,8.193442756633597e-05,0.0016663809431184927,,,6.608268954480129,4.891163002201542e-08,6.608268954480133,4.8911630022015435e-08,0.0,0.0
1625155247.133061,0.0,0.0,5.69,4.8,0.0,0.0,1.3414634466171265,-0.0126953125,0.0009765625,0.0,0.0017277436661688984,0.0,0.0015800087960663887,8.193442756633597e-05,0.0016569391630784293,,,6.608453274708644,4.913572700715195e-08,6.608453274708648,4.913572700715196e-08,0.0,0.0
1625155247.133061,0.0,0.0,5.69,4.8,0.0,0.0,1.3414634466171265,-0.0126953125,0.0009765625,0.0,0.0017277436661688984,0.0,0.0015800087960663887,8.193442756633597e-05,0.0016569391630784293,,,6.608453274708644,4.913572700715195e-08,6.608453274708648,4.913572700715196e-08,0.0,0.0
1625155247.133061,0.0,0.0,5.68,4.79,0.0,0.0,1.3414634466171265,-0.0126953125,0.0009765625,0.0,0.0017277436661688984,0.0,0.0015800087960663887,8.193442756633597e-05,0.0016569391630784293,,,6.608453274708644,4.913572700715195e-08,6.608453274708648,4.913572700715196e-08,0.0,0.0
1625155247.133061,0.0,0.0,5.68,4.79,0.0,0.0,1.3414634466171265,-0.0126953125,0.0009765625,0.0,0.0017277436661688984,0.0,0.0015800087960663887,8.193442756633597e-05,0.0016569391630784293,,,6.608453274708644,4.913572700715195e-08,6.608453274708648,4.913572700715196e-08,0.0,0.0
1625155247.133061,0.0,0.0,5.68,4.79,0.0,0.0,1.2195122241973877,-0.00634765625,0.0166015625,0.0,0.0017277436661688984,0.0,0.0015800087960663887,8.193442756633597e-05,0.0016569391630784293,,,6.608453274708644,4.913572700715195e-08,6.608453274708648,4.913572700715196e-08,0.0,0.0
1625155247.133061,0.0,0.0,5.68,4.79,0.0,0.0,1.2195122241973877,-0.00634765625,0.0166015625,0.0,0.0017277436661688984,0.0,0.0015781008859021095,8.193442756633597e-05,0.0015724145465773529,,,6.608323761974715,4.4739145656732964e-08,6.608323761974718,4.4739145656732984e-08,0.0,0.0
1625155247.133061,0.0,0.0,5.68,4.79,0.0,0.0,1.2195122241973877,-0.00634765625,0.0166015625,0.0,0.0017277436661688984,0.0,0.0015781008859021095,8.193442756633597e-05,0.0015724145465773529,,,6.608323761974715,4.4739145656732964e-08,6.608323761974718,4.4739145656732984e-08,0.0,0.0
1625155247.133061,0.0,0.0,5.68,4.79,0.0,0.0,1.2195122241973877,-0.00634765625,0.0166015625,0.0,0.0017277436661688984,0.0,0.0015781008859021095,8.193442756633597e-05,0.0015724145465773529,,,6.608323761974715,4.4739145656732964e-08,6.608323761974718,4.4739145656732984e-08,0.0,0.0
1625155247.133061,0.0,0.0,5.68,4.79,0.0,0.0,1.2195122241973877,-0.00634765625,0.0166015625,0.0,0.0017277436661688984,0.0,0.0015781008859021095,8.193442756633597e-05,0.0015724145465773529,,,6.608323761974715,4.4739145656732964e-08,6.608323761974718,4.4739145656732984e-08,0.0,0.0
1625155247.133061,0.0,0.0,5.68,4.79,0.0,0.0,1.2195122241973877,-0.00634765625,0.0166015625,0.0,0.0017277436661688984,0.0,0.0015781008859021095,8.193442756633597e-05,0.0015724145465773529,,,6.608323761974715,4.4739145656732964e-08,6.608323761974718,4.4739145656732984e-08,0.0,0.0
1625155247.193061,0.0,0.0,5.68,4.79,0.0,0.0,1.2195122241973877,-0.00634765625,0.0166015625,0.0,0.0018215401875425648,0.0,0.00162740745611954,8.549989189380048e-05,0.0015849931875719816,,,6.608535468448975,4.5555620934961054e-08,6.608535468448979,4.555562093496109e-08,0.0,0.0
1625155247.193061,0.0,0.0,5.68,4.79,0.0,0.0,1.2195122241973877,-0.00634765625,0.0166015625,0.0,0.0018215401875425648,0.0,0.00162740745611954,8.549989189380048e-05,0.0015849931875719816,,,6.608535468448975,4.5555620934961054e-08,6.608535468448979,4.555562093496109e-08,0.0,0.0
1625155247.193061,0.0,0.0,5.69,4.79,0.0,0.0,1.2195122241973877,-0.00634765625,0.0166015625,0.0,0.0018215401875425648,0.0,0.00162740745611954,8.549989189380048e-05,0.0015849931875719816,,,6.608535468448975,4.5555620934961054e-08,6.608535468448979,4.555562093496109e-08,0.0,0.0
1625155247.193061,0.0,0.0,5.69,4.79,0.0,0.0,1.2195122241973877,-0.00634765625,0.0166015625,0.0,0.0018215401875425648,0.0,0.00162740745611954,8.549989189380048e-05,0.0015849931875719816,,,6.608535468448975,4.5555620934961054e-08,6.608535468448979,4.555562093496109e-08,0.0,0.0
1625155247.193061,0.0,0.0,5.69,4.79,0.0,0.0,1.402438998222351,-0.01220703125,0.00390625,0.0,0.0018215401875425648,0.0,0.00162740745611954,8.549989189380048e-05,0.0015849931875719816,,,6.608535468448975,4.5555620934961054e-08,6.608535468448979,4.555562093496109e-08,0.0,0.0
1625155247.253061,0.0,0.0,5.69,4.79,0.0,0.0,1.402438998222351,-0.01220703125,0.00390625,0.0,0.0017067435662675439,0.0,0.00162740745611954,8.226517958000824e-05,0.0015849931875719816,,,6.608535468448975,4.5555620934961054e-08,6.608535468448979,4.555562093496109e-08,0.0,0.0
1625155247.253061,0.0,0.0,5.69,4.79,0.0,0.0,1.402438998222351,-0.01220703125,0.00390625,0.0,0.0017067435662675439,0.0,0.00162740745611954,8.226517958000824e-05,0.0015849931875719816,,,6.608535468448975,4.5555620934961054e-08,6.608535468448979,4.555562093496109e-08,0.0,0.0
1625155247.253061,0.0,0.0,5.69,4.79,0.0,0.0,1.402438998222351,-0.01220703125,0.00390625,0.0,0.0017067435662675439,0.0,0.00162740745611954,8.226517958000824e-05,0.0015849931875719816,,,6.608535468448975,4.5555620934961054e-08,6.608535468448979,4.555562093496109e-08,0.0,0.0
1625155247.253061,0.0,0.0,5.69,4.79,0.0,0.0,1.402438998222351,-0.01220703125,0.00390625,0.0,0.0017067435662675439,0.0,0.0015961425993414689,8.226517958000824e-05,0.0015945490440427332,,,6.608750577024422,4.720086830817655e-08,6.608750577024425,4.720086830817657e-08,0.0,0.0
1625155247.253061,0.0,0.0,5.69,4.79,0.0,0.0,1.402438998222351,-0.01220703125,0.00390625,0.0,0.0017067435662675439,0.0,0.0015961425993414689,8.226517958000824e-05,0.0015945490440427332,,,6.608750577024422,4.720086830817655e-08,6.608750577024425,4.720086830817657e-08,0.0,0.0
1625155247.313061,0.0,0.0,5.69,4.79,0.0,0.0,1.402438998222351,-0.01220703125,0.00390625,0.0,0.001964934015276575,0.0,0.0015961425993414689,9.206578625755049e-05,0.0015945490440427332,,,6.608750577024422,4.720086830817655e-08,6.608750577024425,4.720086830817657e-08,0.0,0.0
1625155247.313061,0.0,0.0,5.69,4.78,0.0,0.0,1.2804877758026123,-0.0107421875,0.00830078125,0.0,0.001964934015276575,0.0,0.0016869229431444093,9.206578625755049e-05,0.0016094646004939622,,,6.608968479705596,4.839929844881354e-08,6.6089684797056,4.839929844881356e-08,0.0,0.0
1625155247.313061,0.0,0.0,5.69,4.78,0.0,0.0,1.2804877758026123,-0.0107421875,0.00830078125,0.0,0.001964934015276575,0.0,0.0016869229431444093,9.206578625755049e-05,0.0016094646004939622,,,6.608968479705596,4.839929844881354e-08,6.6089684797056,4.839929844881356e-08,0.0,0.0
1625155247.313061,0.0,0.0,5.69,4.78,0.0,0.0,1.2804877758026123,-0.0107421875,0.00830078125,0.0,0.001964934015276575,0.0,0.0016869229431444093,9.206578625755049e-05,0.0016094646004939622,,,6.608968479705596,4.839929844881354e-08,6.6089684797056,4.839929844881356e-08,0.0,0.0
1625155247.313061,0.0,0.0,5.69,4.78,0.0,0.0,1.2804877758026123,-0.0107421875,0.00830078125,0.0,0.001964934015276575,0.0,0.0016869229431444093,9.206578625755049e-05,0.0016094646004939622,,,6.608968479705596,4.839929844881354e-08,6.6089684797056,4.839929844881356e-08,0.0,0.0
1625155247.373061,0.0,0.0,5.69,4.78,0.0,0.0,1.2804877758026123,-0.0107421875,0.00830078125,0.0,0.0017675780639713641,0.0,0.0016869229431444093,8.646012035568539e-05,0.0016094646004939622,,,6.608968479705596,4.839929844881354e-08,6.6089684797056,4.839929844881356e-08,0.0,0.0
1625155247.373061,0.0,0.0,5.69,4.78,0.0,0.0,1.2804877758026123,-0.0107421875,0.00830078125,0.0,0.0017675780639713641,0.0,0.0016648912655993487,8.646012035568539e-05,0.0016194510035572203,,,6.6091886820969385,4.9810154292116494e-08,6.609188682096942,4.9810154292116514e-08,0.0,0.0
1625155247.373061,0.0,0.0,5.69,4.78,0.0,0.0,1.2804877758026123,-0.0107421875,0.00830078125,0.0,0.0017675780639713641,0.0,0.0016648912655993487,8.646012035568539e-05,0.0016194510035572203,,,6.6091886820969385,4.9810154292116494e-08,6.609188682096942,4.9810154292116514e-08,0.0,0.0
1625155247.373061,0.0,0.0,5.69,4.78,0.0,0.0,1.2804877758026123,-0.0107421875,0.00830078125,0.0,0.0017675780639713641,0.0,0.0016648912655993487,8.646012035568539e-05,0.0016194510035572203,,,6.6091886820969385,4.9810154292116494e-08,6.609188682096942,4.9810154292116514e-08,0.0,0.0
1625155247.373061,0.0,0.0,5.69,4.78,0.0,0.0,1.2804877758026123,-0.0107421875,0.00830078125,0.0,0.0016568916321988252,0.0,0.0016648912655993487,8.13869584034527e-05,0.0016194510035572203,,,6.6091886820969385,4.9810154292116494e-08,6.609188682096942,4.9810154292116514e-08,0.0,0.0
1625155247.4330611,0.0,0.0,5.69,4.78,0.0,0.0,1.2804877758026123,-0.0107421875,0.00830078125,0.0,0.0016568916321988252,0.0,0.0016648912655993487,8.13869584034527e-05,0.0016194510035572203,,,6.6091886820969385,4.9810154292116494e-08,6.609188682096942,4.9810154292116514e-08,0.0,0.0
1625155247.4330611,0.0,0.0,5.71,4.78,0.0,0.0,1.2804877758026123,-0.0107421875,0.00830078125,0.0,0.0016568916321988252,0.0,0.0015961147476153182,8.13869584034527e-05,0.0016230896711121683,,,6.609410751815794,5.0843795710876086e-08,6.609410751815798,5.084379571087612e-08,0.0,0.0
1625155247.4330611,0.0,0.0,5.71,4.78,0.0,0.0,1.2195122241973877,-0.0078125,0.00830078125,0.0,0.0016568916321988252,0.0,0.0015961147476153182,8.13869584034527e-05,0.0016230896711121683,,,6.609410751815794,5.0843795710876086e-08,6.609410751815798,5.084379571087612e-08,0.0,0.0
1625155247.4330611,0.0,0.0,5.71,4.78,0.0,0.0,1.2195122241973877,-0.0078125,0.00830078125,0.0,0.0016568916321988252,0.0,0.0015961147476153182,8.13869584034527e-05,0.0016230896711121683,,,6.609410751815794,5.0843795710876086e-08,6.609410751815798,5.084379571087612e-08,0.0,0.0
1625155247.4330611,0.0,0.0,5.71,4.78,0.0,0.0,1.2195122241973877,-0.0078125,0.00830078125,0.0,0.0019705985349040113,0.0,0.0015961147476153182,0.00017076372749780998,0.0016230896711121683,,,6.609410751815794,5.0843795710876086e-08,6.609410751815798,5.084379571087612e-08,0.0,0.0
1625155247.475061,0.0,0.0,5.71,4.78,0.0,0.0,1.2195122241973877,-0.0078125,0.00830078125,0.0,0.0019705985349040113,0.0,0.0017274233519621082,0.00017076372749780998,0.0016541909632372734,,,6.6095271614672955,4.9497461173754735e-08,6.609527161467299,4.9497461173754775e-08,0.0,0.0
1625155247.475061,0.0,0.0,5.71,4.78,0.0,0.0,1.2195122241973877,-0.0078125,0.00830078125,0.0,0.0019705985349040113,0.0,0.0017274233519621082,0.00017076372749780998,0.0016541909632372734,,,6.6095271614672955,4.9497461173754735e-08,6.609527161467299,4.9497461173754775e-08,0.0,0.0
1625155247.475061,0.0,0.0,5.71,4.78,0.0,0.0,1.2195122241973877,-0.0078125,0.00830078125,0.0,0.0019705985349040113,0.0,0.0017274233519621082,0.00017076372749780998,0.0016541909632372734,,,6.6095271614672955,4.9497461173754735e-08,6.609527161467299,4.9497461173754775e-08,0.0,0.0
1625155247.475061,0.0,0.0,5.71,4.78,0.0,0.0,1.2195122241973877,-0.0078125,0.00830078125,0.0,0.0019705985349040113,0.0,0.0017274233519621082,0.00017076372749780998,0.0016541909632372734,,,6.6095271614672955,4.9497461173754735e-08,6.609527161467299,4.9497461173754775e-08,0.0,0.0
1625155247.475061,0.0,0.0,5.71,4.78,0.0,0.0,1.2195122241973877,-0.0078125,0.00830078125,0.0,0.0019304929255544066,0.0,0.0017274233519621082,8.990712090549248e-05,0.0016541909632372734,,,6.6095271614672955,4.9497461173754735e-08,6.609527161467299,4.9497461173754775e-08,0.0,0.0
1625155247.493061,0.0,0.0,5.71,4.78,0.0,0.0,1.2195122241973877,-0.0078125,0.00830078125,0.0,0.0019304929255544066,0.0,0.0017274233519621082,8.990712090549248e-05,0.0016541909632372734,,,6.6095271614672955,4.9497461173754735e-08,6.609527161467299,4.9497461173754775e-08,0.0,0.0
1625155247.493061,0.0,0.0,5.71,4.78,0.0,0.0,1.2195122241973877,-0.0078125,0.00830078125,0.0,0.0019304929255544066,0.0,0.0017477843136984874,8.990712090549248e-05,0.0016000613639594427,,,6.60949791714619,4.6502535401148104e-08,6.609497917146194,4.650253540114815e-08,0.0,0.0
1625155247.493061,0.0,0.0,5.71,4.79,0.0,0.0,1.2195122241973877,-0.0107421875,0.00732421875,0.0,0.0019304929255544066,0.0,0.0017477843136984874,8.990712090549248e-05,0.0016000613639594427,,,6.60949791714619,4.6502535401148104e-08,6.609497917146194,4.650253540114815e-08,0.0,0.0
1625155247.493061,0.0,0.0,5.71,4.79,0.0,0.0,1.2195122241973877,-0.0107421875,0.00732421875,0.0,0.0019304929255544066,0.0,0.0017477843136984874,8.990712090549248e-05,0.0016000613639594427,,,6.60949791714619,4.6502535401148104e-08,6.609497917146194,4.650253540114815e-08,0.0,0.0
1625155247.579061,0.0,0.0,5.71,4.79,0.0,0.0,1.2195122241973877,-0.0107421875,0.00732421875,0.0,0.001926937629823258,0.0,0.0017477843136984874,0.00014103169742394494,0.0016000613639594427,,,6.60949791714619,4.6502535401148104e-08,6.609497917146194,4.650253540114815e-08,0.0,0.0
1625155247.579061,0.0,0.0,5.71,4.79,0.0,0.0,1.2195122241973877,-0.0107421875,0.00732421875,0.0,0.001926937629823258,0.0,0.0017949330398840263,0.00014103169742394494,0.001693344168847976,,,6.609876900085732,5.203018495432429e-08,6.609876900085736,5.203018495432433e-08,0.0,0.0
1625155247.579061,0.0,0.0,5.71,4.79,0.0,0.0,1.2195122241973877,-0.0107421875,0.00732421875,0.0,0.001926937629823258,0.0,0.0017949330398840263,0.00014103169742394494,0.001693344168847976,,,6.609876900085732,5.203018495432429e-08,6.609876900085736,5.203018495432433e-08,0.0,0.0
1625155247.579061,0.0,0.0,5.71,4.79,0.0,0.0,1.2195122241973877,-0.0107421875,0.00732421875,0.0,0.001926937629823258,0.0,0.0017949330398840263,0.00014103169742394494,0.001693344168847976,,,6.609876900085732,5.203018495432429e-08,6.609876900085736,5.203018495432433e-08,0.0,0.0
1625155247.579061,0.0,0.0,5.71,4.79,0.0,0.0,1.2195122241973877,-0.0107421875,0.00732421875,0.0,0.001926937629823258,0.0,0.0017949330398840263,0.00014103169742394494,0.001693344168847976,,,6.609876900085732,5.203018495432429e-08,6.609876900085736,5.203018495432433e-08,0.0,0.0
1625155247.613061,0.0,0.0,5.71,4.79,0.0,0.0,1.2195122241973877,-0.0107421875,0.00732421875,0.0,0.0018562373058563703,0.0,0.0017949330398840263,8.932896975522675e-05,0.001693344168847976,,,6.609876900085732,5.203018495432429e-08,6.609876900085736,5.203018495432433e-08,0.0,0.0
1625155247.613061,0.0,0.0,5.71,4.79,0.0,0.0,1.2195122241973877,-0.0107421875,0.00732421875,0.0,0.0018562373058563703,0.0,0.0017949330398840263,8.932896975522675e-05,0.001693344168847976,,,6.609876900085732,5.203018495432429e-08,6.609876900085736,5.203018495432433e-08,0.0,0.0
1625155247.613061,0.0,0.0,5.72,4.78,0.0,0.0,1.2195122241973877,-0.0107421875,0.00732421875,0.0,0.0018562373058563703,0.0,0.0017949330398840263,8.932896975522675e-05,0.001693344168847976,,,6.609876900085732,5.203018495432429e-08,6.609876900085736,5.203018495432433e-08,0.0,0.0
1625155247.613061,0.0,0.0,5.72,4.78,0.0,0.0,1.2195122241973877,-0.0107421875,0.00732421875,0.0,0.0018562373058563703,0.0,0.0017949330398840263,8.932896975522675e-05,0.001693344168847976,,,6.609876900085732,5.203018495432429e-08,6.609876900085736,5.203018495432433e-08,0.0,0.0
1625155247.613061,0.0,0.0,5.72,4.78,0.0,0.0,1.2195122241973877,-0.009765625,0.00439453125,0.0,0.0018562373058563703,0.0,0.0017949330398840263,8.932896975522675e-05,0.001693344168847976,,,6.609876900085732,5.203018495432429e-08,6.609876900085736,5.203018495432433e-08,0.0,0.0
1625155247.6830611,0.0,0.0,5.72,4.78,0.0,0.0,1.2195122241973877,-0.009765625,0.00439453125,0.0,0.0019660450205552173,0.0,0.0017629904210040021,0.0001116101390763765,0.0016589597911270155,,,6.609938554396956,5.027456247732617e-08,6.60993855439696,5.027456247732622e-08,0.0,0.0
1625155247.6830611,0.0,0.0,5.72,4.78,0.0,0.0,1.2195122241973877,-0.009765625,0.00439453125,0.0,0.0019660450205552173,0.0,0.0017629904210040021,0.0001116101390763765,0.0016589597911270155,,,6.609938554396956,5.027456247732617e-08,6.60993855439696,5.027456247732622e-08,0.0,0.0
1625155247.6830611,0.0,0.0,5.72,4.78,0.0,0.0,1.2195122241973877,-0.009765625,0.00439453125,0.0,0.0019660450205552173,0.0,0.0017629904210040021,0.0001116101390763765,0.0016589597911270155,,,6.609938554396956,5.027456247732617e-08,6.60993855439696,5.027456247732622e-08,0.0,0.0
1625155247.6830611,0.0,0.0,5.72,4.78,0.0,0.0,1.2195122241973877,-0.009765625,0.00439453125,0.0,0.0019660450205552173,0.0,0.0017629904210040021,0.0001116101390763765,0.0016589597911270155,,,6.609938554396956,5.027456247732617e-08,6.60993855439696,5.027456247732622e-08,0.0,0.0
1625155247.6830611,0.0,0.0,5.72,4.78,0.0,0.0,1.2195122241973877,-0.009765625,0.00439453125,0.0,0.0019660450205552173,0.0,0.0018053511617890435,0.0001116101390763765,0.001705713351844508,,,6.610222851146007,5.2972315176009334e-08,6.610222851146011,5.2972315176009374e-08,0.0,0.0
1625155247.733061,0.0,0.0,5.72,4.78,0.0,0.0,1.2195122241973877,-0.009765625,0.00439453125,0.0,0.001862188463662353,0.0,0.0017613928152773954,8.960899431649984e-05,0.0016957524928873425,,,6.610382292072339,5.286186696135657e-08,6.610382292072343,5.2861866961356604e-08,0.0,0.0
1625155247.733061,0.0,0.0,5.72,4.78,0.0,0.0,1.2195122241973877,-0.009765625,0.00439453125,0.0,0.001862188463662353,0.0,0.0017613928152773954,8.960899431649984e-05,0.0016957524928873425,,,6.610382292072339,5.286186696135657e-08,6.610382292072343,5.2861866961356604e-08,0.0,0.0
1625155247.733061,0.0,0.0,5.73,4.78,0.0,0.0,1.2195122241973877,-0.009765625,0.00439453125,0.0,0.001862188463662353,0.0,0.0017613928152773954,8.960899431649984e-05,0.0016957524928873425,,,6.610382292072339,5.286186696135657e-08,6.610382292072343,5.2861866961356604e-08,0.0,0.0
1625155247.733061,0.0,0.0,5.73,4.78,0.0,0.0,1.2195122241973877,-0.009765625,0.00439453125,0.0,0.001862188463662353,0.0,0.0017613928152773954,8.960899431649984e-05,0.0016957524928873425,,,6.610382292072339,5.286186696135657e-08,6.610382292072343,5.2861866961356604e-08,0.0,0.0
1625155247.733061,0.0,0.0,5.73,4.78,0.0,0.0,1.2195122241973877,-0.0087890625,0.0048828125,0.0,0.001862188463662353,0.0,0.0017613928152773954,8.960899431649984e-05,0.0016957524928873425,,,6.610382292072339,5.286186696135657e-08,6.610382292072343,5.2861866961356604e-08,0.0,0.0
1625155247.733061,0.0,0.0,5.73,4.78,0.0,0.0,1.2195122241973877,-0.0087890625,0.0048828125,0.0,0.001862188463662353,0.0,0.0017613928152773954,8.960899431649984e-05,0.0016957524928873425,,,6.610382292072339,5.286186696135657e-08,6.610382292072343,5.2861866961356604e-08,0.0,0.0
1625155247.733061,0.0,0.0,5.73,4.78,0.0,0.0,1.2195122241973877,-0.0087890625,0.0048828125,0.0,0.001862188463662353,0.0,0.0017613928152773954,8.960899431649984e-05,0.0016957524928873425,,,6.610382292072339,5.286186696135657e-08,6.610382292072343,5.2861866961356604e-08,0.0,0.0
1625155247.733061,0.0,0.0,5.73,4.78,0.0,0.0,1.2195122241973877,-0.0087890625,0.0048828125,0.0,0.001862188463662353,0.0,0.0017613928152773954,8.960899431649984e-05,0.0016957524928873425,,,6.610382292072339,5.286186696135657e-08,6.610382292072343,5.2861866961356604e-08,0.0,0.0
1625155247.733061,0.0,0.0,5.73,4.78,0.0,0.0,1.2195122241973877,-0.0087890625,0.0048828125,0.0,0.001862188463662353,0.0,0.0017613928152773954,8.960899431649984e-05,0.0016957524928873425,,,6.610382292072339,5.286186696135657e-08,6.610382292072343,5.2861866961356604e-08,0.0,0.0
1625155247.733061,0.0,0.0,5.73,4.78,0.0,0.0,1.2195122241973877,-0.0087890625,0.0048828125,0.0,0.001862188463662353,0.0,0.0017613928152773954,8.960899431649984e-05,0.0016957524928873425,,,6.610382292072339,5.286186696135657e-08,6.610382292072343,5.2861866961356604e-08,0.0,0.0
1625155247.793061,0.0,0.0,5.73,4.78,0.0,0.0,1.2195122241973877,-0.0087890625,0.0048828125,0.0,0.0019191516742207279,0.0,0.0017461072767723884,9.09826841642566e-05,0.0016081236814352324,,,6.610252163666374,4.7807481105645996e-08,6.610252163666377,4.7807481105646016e-08,0.0,0.0
1625155247.793061,0.0,0.0,5.73,4.78,0.0,0.0,1.2195122241973877,-0.0087890625,0.0048828125,0.0,0.0019191516742207279,0.0,0.0017461072767723884,9.09826841642566e-05,0.0016081236814352324,,,6.610252163666374,4.7807481105645996e-08,6.610252163666377,4.7807481105646016e-08,0.0,0.0
1625155247.793061,0.0,0.0,5.73,4.78,0.0,0.0,1.2195122241973877,-0.0146484375,0.00390625,0.0,0.0019191516742207279,0.0,0.0017461072767723884,9.09826841642566e-05,0.0016081236814352324,,,6.610252163666374,4.7807481105645996e-08,6.610252163666377,4.7807481105646016e-08,0.0,0.0
1625155247.793061,0.0,0.0,5.71,4.8,0.0,0.0,1.2195122241973877,-0.0146484375,0.00390625,0.0,0.0019191516742207279,0.0,0.0017461072767723884,9.09826841642566e-05,0.0016081236814352324,,,6.610252163666374,4.7807481105645996e-08,6.610252163666377,4.7807481105646016e-08,0.0,0.0
1625155247.793061,0.0,0.0,5.71,4.8,0.0,0.0,1.2195122241973877,-0.0146484375,0.00390625,0.0,0.0019191516742207279,0.0,0.0017674605616674799,9.09826841642566e-05,0.0016264413052737511,,,6.610464116489608,4.8895948850123446e-08,6.610464116489611,4.889594885012347e-08,0.0,0.0
1625155247.871061,0.0,0.0,5.71,4.8,0.0,0.0,1.2195122241973877,-0.0146484375,0.00390625,0.0,0.001966172923846062,0.0,0.0018253017749124217,0.00012779678062545933,0.0017011109368803888,,,6.610790984217747,5.296890022732844e-08,6.610790984217751,5.296890022732848e-08,0.0,0.0
1625155247.871061,0.0,0.0,5.71,4.8,0.0,0.0,1.2195122241973877,-0.0146484375,0.00390625,0.0,0.001966172923846062,0.0,0.0018253017749124217,0.00012779678062545933,0.0017011109368803888,,,6.610790984217747,5.296890022732844e-08,6.610790984217751,5.296890022732848e-08,0.0,0.0
1625155247.871061,0.0,0.0,5.71,4.8,0.0,0.0,1.2195122241973877,-0.0146484375,0.00390625,0.0,0.001966172923846062,0.0,0.0018253017749124217,0.00012779678062545933,0.0017011109368803888,,,6.610790984217747,5.296890022732844e-08,6.610790984217751,5.296890022732848e-08,0.0,0.0
1625155247.871061,0.0,0.0,5.71,4.8,0.0,0.0,1.2195122241973877,-0.0146484375,0.00390625,0.0,0.001966172923846062,0.0,0.0018253017749124217,0.00012779678062545933,0.0017011109368803888,,,6.610790984217747,5.296890022732844e-08,6.610790984217751,5.296890022732848e-08,0.0,0.0
1625155247.871061,0.0,0.0,5.71,4.8,0.0,0.0,1.2195122241973877,-0.0146484375,0.00390625,0.0,0.001966172923846062,0.0,0.0018253017749124217,0.00012779678062545933,0.0017011109368803888,,,6.610790984217747,5.296890022732844e-08,6.610790984217751,5.296890022732848e-08,0.0,0.0
1625155247.9130611,0.0,0.0,5.71,4.8,0.0,0.0,1.2195122241973877,-0.0146484375,0.00390625,0.0,0.0018787410191613868,0.0,0.0018253017749124217,9.047561033493772e-05,0.0017011109368803888,,,6.610790984217747,5.296890022732844e-08,6.610790984217751,5.296890022732848e-08,0.0,0.0
1625155247.9130611,0.0,0.0,5.71,4.8,0.0,0.0,1.2195122241973877,-0.0146484375,0.00390625,0.0,0.0018787410191613868,0.0,0.0018253017749124217,9.047561033493772e-05,0.0017011109368803888,,,6.610790984217747,5.296890022732844e-08,6.610790984217751,5.296890022732848e-08,0.0,0.0
1625155247.9130611,0.0,0.0,5.73,4.8,0.0,0.0,1.2195122241973877,-0.0146484375,0.00390625,0.0,0.0018787410191613868,0.0,0.0018253017749124217,9.047561033493772e-05,0.0017011109368803888,,,6.610790984217747,5.296890022732844e-08,6.610790984217751,5.296890022732848e-08,0.0,0.0
1625155247.9130611,0.0,0.0,5.73,4.8,0.0,0.0,1.2804877758026123,-0.0068359375,0.01220703125,0.0,0.0018787410191613868,0.0,0.0018253017749124217,9.047561033493772e-05,0.0017011109368803888,,,6.610790984217747,5.296890022732844e-08,6.610790984217751,5.296890022732848e-08,0.0,0.0
1625155247.9130611,0.0,0.0,5.73,4.8,0.0,0.0,1.2804877758026123,-0.0068359375,0.01220703125,0.0,0.0018787410191613868,0.0,0.0017893789219576748,9.047561033493772e-05,0.001682053952556176,,,6.610901707705429,5.2010782077942805e-08,6.610901707705432,5.201078207794283e-08,0.0,0.0
1625155247.975061,0.0,0.0,5.73,4.8,0.0,0.0,1.2804877758026123,-0.0068359375,0.01220703125,0.0,0.0018875445766576599,0.0,0.0017893789219576748,9.353507131880122e-05,0.001682053952556176,,,6.610901707705429,5.2010782077942805e-08,6.610901707705432,5.201078207794283e-08,0.0,0.0
1625155247.975061,0.0,0.0,5.73,4.8,0.0,0.0,1.2804877758026123,-0.0068359375,0.01220703125,0.0,0.0018875445766576599,0.0,0.0017893789219576748,9.353507131880122e-05,0.001682053952556176,,,6.610901707705429,5.2010782077942805e-08,6.610901707705432,5.201078207794283e-08,0.0,0.0
1625155247.975061,0.0,0.0,5.73,4.8,0.0,0.0,1.2804877758026123,-0.0068359375,0.01220703125,0.0,0.0018875445766576599,0.0,0.0017893789219576748,9.353507131880122e-05,0.001682053952556176,,,6.610901707705429,5.2010782077942805e-08,6.610901707705432,5.201078207794283e-08,0.0,0.0
1625155247.975061,0.0,0.0,5.73,4.8,0.0,0.0,1.2804877758026123,-0.0068359375,0.01220703125,0.0,0.0018875445766576599,0.0,0.0017776734884196867,9.353507131880122e-05,0.0017010194020776986,,,6.611134443499071,5.3481475220881864e-08,6.611134443499075,5.3481475220881884e-08,0.0,0.0
1625155247.975061,0.0,0.0,5.73,4.8,0.0,0.0,1.2804877758026123,-0.0068359375,0.01220703125,0.0,0.0018875445766576599,0.0,0.0017776734884196867,9.353507131880122e-05,0.0017010194020776986,,,6.611134443499071,5.3481475220881864e-08,6.611134443499075,5.3481475220881884e-08,0.0,0.0
1625155248.033061,0.0,0.0,5.73,4.8,0.0,0.0,1.2804877758026123,-0.0068359375,0.01220703125,0.0,0.0017729151030813819,0.0,0.0017776734884196867,8.597401945980089e-05,0.0017010194020776986,,,6.611134443499071,5.3481475220881864e-08,6.611134443499075,5.3481475220881884e-08,0.0,0.0
1625155248.033061,0.0,0.0,5.73,4.8,0.0,0.0,1.2804877758026123,-0.0068359375,0.01220703125,0.0,0.0017729151030813819,0.0,0.0017776734884196867,8.597401945980089e-05,0.0017010194020776986,,,6.611134443499071,5.3481475220881864e-08,6.611134443499075,5.3481475220881884e-08,0.0,0.0
1625155248.033061,0.0,0.0,5.71,4.81,0.0,0.0,1.2804877758026123,-0.0068359375,0.01220703125,0.0,0.0017729151030813819,0.0,0.0017776734884196867,8.597401945980089e-05,0.0017010194020776986,,,6.611134443499071,5.3481475220881864e-08,6.611134443499075,5.3481475220881884e-08,0.0,0.0
1625155248.033061,0.0,0.0,5.71,4.81,0.0,0.0,1.2804877758026123,-0.01708984375,0.01123046875,0.0,0.0017729151030813819,0.0,0.0017099664593035965,8.597401945980089e-05,0.0017033334917609254,,,6.611343950474489,5.4098457151816537e-08,6.611343950474493,5.409845715181655e-08,0.0,0.0
1625155248.033061,0.0,0.0,5.71,4.81,0.0,0.0,1.2804877758026123,-0.01708984375,0.01123046875,0.0,0.0017729151030813819,0.0,0.0017099664593035965,8.597401945980089e-05,0.0017033334917609254,,,6.611343950474489,5.4098457151816537e-08,6.611343950474493,5.409845715181655e-08,0.0,0.0
1625155248.093061,0.0,0.0,5.71,4.81,0.0,0.0,1.2804877758026123,-0.01708984375,0.01123046875,0.0,0.0018884753840766513,0.0,0.0017099664593035965,8.944324270522048e-05,0.0017033334917609254,,,6.611343950474489,5.4098457151816537e-08,6.611343950474493,5.409845715181655e-08,0.0,0.0
1625155248.093061,0.0,0.0,5.71,4.81,0.0,0.0,1.2804877758026123,-0.01708984375,0.01123046875,0.0,0.0018884753840766513,0.0,0.0017099664593035965,8.944324270522048e-05,0.0017033334917609254,,,6.611343950474489,5.4098457151816537e-08,6.611343950474493,5.409845715181655e-08,0.0,0.0
1625155248.093061,0.0,0.0,5.71,4.81,0.0,0.0,1.2804877758026123,-0.01708984375,0.01123046875,0.0,0.0018884753840766513,0.0,0.0017202142388298347,8.944324270522048e-05,0.0017094971477887636,,,6.6115672797551195,5.449525212393414e-08,6.611567279755123,5.4495252123934155e-08,0.0,0.0
1625155248.093061,0.0,0.0,5.71,4.81,0.0,0.0,1.2804877758026123,-0.01708984375,0.01123046875,0.0,0.0018884753840766513,0.0,0.0017202142388298347,8.944324270522048e-05,0.0017094971477887636,,,6.6115672797551195,5.449525212393414e-08,6.611567279755123,5.4495252123934155e-08,0.0,0.0
1625155248.093061,0.0,0.0,5.71,4.81,0.0,0.0,1.2804877758026123,-0.01708984375,0.01123046875,0.0,0.0018884753840766513,0.0,0.0017202142388298347,8.944324270522048e-05,0.0017094971477887636,,,6.6115672797551195,5.449525212393414e-08,6.611567279755123,5.4495252123934155e-08,0.0,0.0
1625155248.093061,0.0,0.0,5.71,4.81,0.0,0.0,1.2804877758026123,-0.01708984375,0.01123046875,0.0,0.0018884753840766513,0.0,0.0017202142388298347,8.944324270522048e-05,0.0017094971477887636,,,6.6115672797551195,5.449525212393414e-08,6.611567279755123,5.4495252123934155e-08,0.0,0.0
1625155248.093061,0.0,0.0,5.71,4.81,0.0,0.0,1.2804877758026123,-0.01708984375,0.01123046875,0.0,0.0018884753840766513,0.0,0.0017202142388298347,8.944324270522048e-05,0.0017094971477887636,,,6.6115672797551195,5.449525212393414e-08,6.611567279755123,5.4495252123934155e-08,0.0,0.0
1625155248.093061,0.0,0.0,5.68,4.81,0.0,0.0,1.2804877758026123,-0.01708984375,0.01123046875,0.0,0.0018884753840766513,0.0,0.0017202142388298347,8.944324270522048e-05,0.0017094971477887636,,,6.6115672797551195,5.449525212393414e-08,6.611567279755123,5.4495252123934155e-08,0.0,0.0
1625155248.093061,0.0,0.0,5.68,4.81,0.0,0.0,1.2804877758026123,-0.01220703125,0.0087890625,0.0,0.0018884753840766513,0.0,0.001729246477047939,8.944324270522048e-05,0.0016233139862959103,,,6.611430843282111,4.913951154351362e-08,6.611430843282115,4.913951154351364e-08,0.0,0.0
1625155248.093061,0.0,0.0,5.68,4.81,0.0,0.0,1.2804877758026123,-0.01220703125,0.0087890625,0.0,0.0018884753840766513,0.0,0.001729246477047939,8.944324270522048e-05,0.0016233139862959103,,,6.611430843282111,4.913951154351362e-08,6.611430843282115,4.913951154351364e-08,0.0,0.0
1625155248.1830611,0.0,0.0,5.68,4.81,0.0,0.0,1.2804877758026123,-0.01220703125,0.0087890625,0.0,0.0019544826215919407,0.0,0.001729246477047939,0.00014987703358948525,0.0016233139862959103,,,6.611430843282111,4.913951154351362e-08,6.611430843282115,4.913951154351364e-08,0.0,0.0
1625155248.1830611,0.0,0.0,5.68,4.81,0.0,0.0,1.2804877758026123,-0.01220703125,0.0087890625,0.0,0.0019544826215919407,0.0,0.001729246477047939,0.00014987703358948525,0.0016233139862959103,,,6.611430843282111,4.913951154351362e-08,6.611430843282115,4.913951154351364e-08,0.0,0.0
1625155248.1830611,0.0,0.0,5.68,4.81,0.0,0.0,1.2804877758026123,-0.01220703125,0.0087890625,0.0,0.0019544826215919407,0.0,0.0018000191756947217,0.00014987703358948525,0.0017261110837268983,,,6.6118310249685095,5.296371941029687e-08,6.611831024968513,5.296371941029688e-08,0.0,0.0
1625155248.1830611,0.0,0.0,5.68,4.81,0.0,0.0,1.2804877758026123,-0.01220703125,0.0087890625,0.0,0.0019544826215919407,0.0,0.0018000191756947217,0.00014987703358948525,0.0017261110837268983,,,6.6118310249685095,5.296371941029687e-08,6.611831024968513,5.296371941029688e-08,0.0,0.0
1625155248.1830611,0.0,0.0,5.68,4.81,0.0,0.0,1.2804877758026123,-0.01220703125,0.0087890625,0.0,0.0019544826215919407,0.0,0.0018000191756947217,0.00014987703358948525,0.0017261110837268983,,,6.6118310249685095,5.296371941029687e-08,6.611831024968513,5.296371941029688e-08,0.0,0.0
1625155248.213061,0.0,0.0,5.68,4.81,0.0,0.0,1.2804877758026123,-0.01220703125,0.0087890625,0.0,0.0018906051507225677,0.0,0.0018000191756947217,9.03910265468844e-05,0.0017261110837268983,,,6.6118310249685095,5.296371941029687e-08,6.611831024968513,5.296371941029688e-08,0.0,0.0
1625155248.213061,0.0,0.0,5.68,4.81,0.0,0.0,1.2804877758026123,-0.01220703125,0.0087890625,0.0,0.0018906051507225677,0.0,0.0017806635865204243,9.03910265468844e-05,0.001685496815900105,,,6.611869783703722,5.0625982901059416e-08,6.6118697837037255,5.062598290105941e-08,0.0,0.0
1625155248.213061,0.0,0.0,5.66,4.78,0.0,0.0,1.2804877758026123,-0.01220703125,0.0087890625,0.0,0.0018906051507225677,0.0,0.0017806635865204243,9.03910265468844e-05,0.001685496815900105,,,6.611869783703722,5.0625982901059416e-08,6.6118697837037255,5.062598290105941e-08,0.0,0.0
1625155248.213061,0.0,0.0,5.66,4.78,0.0,0.0,1.2804877758026123,-0.00927734375,0.01611328125,0.0,0.0018906051507225677,0.0,0.0017806635865204243,9.03910265468844e-05,0.001685496815900105,,,6.611869783703722,5.0625982901059416e-08,6.6118697837037255,5.062598290105941e-08,0.0,0.0
1625155248.213061,0.0,0.0,5.66,4.78,0.0,0.0,1.2804877758026123,-0.00927734375,0.01611328125,0.0,0.0018906051507225677,0.0,0.0017806635865204243,9.03910265468844e-05,0.001685496815900105,,,6.611869783703722,5.0625982901059416e-08,6.6118697837037255,5.062598290105941e-08,0.0,0.0
1625155248.287061,0.0,0.0,5.66,4.78,0.0,0.0,1.2804877758026123,-0.00927734375,0.01611328125,0.0,0.0020726250709033186,0.0,0.0017806635865204243,0.00012442784265547665,0.001685496815900105,,,6.611869783703722,5.0625982901059416e-08,6.6118697837037255,5.062598290105941e-08,0.0,0.0
1625155248.287061,0.0,0.0,5.66,4.78,0.0,0.0,1.2804877758026123,-0.00927734375,0.01611328125,0.0,0.0020726250709033186,0.0,0.0017806635865204243,0.00012442784265547665,0.001685496815900105,,,6.611869783703722,5.0625982901059416e-08,6.6118697837037255,5.062598290105941e-08,0.0,0.0
1625155248.287061,0.0,0.0,5.66,4.78,0.0,0.0,1.2804877758026123,-0.00927734375,0.01611328125,0.0,0.0020726250709033186,0.0,0.0017806635865204243,0.00012442784265547665,0.001685496815900105,,,6.611869783703722,5.0625982901059416e-08,6.6118697837037255,5.062598290105941e-08,0.0,0.0
1625155248.287061,0.0,0.0,5.66,4.78,0.0,0.0,1.2804877758026123,-0.00927734375,0.01611328125,0.0,0.0020726250709033186,0.0,0.0017806635865204243,0.00012442784265547665,0.001685496815900105,,,6.611869783703722,5.0625982901059416e-08,6.6118697837037255,5.062598290105941e-08,0.0,0.0
1625155248.287061,0.0,0.0,5.66,4.78,0.0,0.0,1.2804877758026123,-0.00927734375,0.01611328125,0.0,0.0020726250709033186,0.0,0.0017806635865204243,0.00012442784265547665,0.001685496815900105,,,6.611869783703722,5.0625982901059416e-08,6.6118697837037255,5.062598290105941e-08,0.0,0.0
1625155248.333061,0.0,0.0,5.66,4.78,0.0,0.0,1.2804877758026123,-0.00927734375,0.01611328125,0.0,0.001971471648572153,0.0,0.0018672018094111269,9.414987736308817e-05,0.0017480711100575181,,,6.612177752286155,5.389006290792412e-08,6.612177752286159,5.389006290792411e-08,0.0,0.0
1625155248.333061,0.0,0.0,5.66,4.8,0.0,0.0,1.2804877758026123,-0.01416015625,0.01025390625,0.0,0.001971471648572153,0.0,0.0018672018094111269,9.414987736308817e-05,0.0017480711100575181,,,6.612177752286155,5.389006290792412e-08,6.612177752286159,5.389006290792411e-08,0.0,0.0
1625155248.333061,0.0,0.0,5.66,4.8,0.0,0.0,1.2804877758026123,-0.01416015625,0.01025390625,0.0,0.001971471648572153,0.0,0.0018672018094111269,9.414987736308817e-05,0.0017480711100575181,,,6.612177752286155,5.389006290792412e-08,6.612177752286159,5.389006290792411e-08,0.0,0.0
1625155248.333061,0.0,0.0,5.66,4.8,0.0,0.0,1.2804877758026123,-0.01416015625,0.01025390625,0.0,0.001971471648572153,0.0,0.0018672018094111269,9.414987736308817e-05,0.0017480711100575181,,,6.612177752286155,5.389006290792412e-08,6.612177752286159,5.389006290792411e-08,0.0,0.0
1625155248.333061,0.0,0.0,5.66,4.8,0.0,0.0,1.2804877758026123,-0.01416015625,0.01025390625,0.0,0.001971471648572153,0.0,0.0018412499953514132,9.414987736308817e-05,0.0017342408512093892,,,6.612312235070614,5.337965279797688e-08,6.612312235070617,5.337965279797687e-08,0.0,0.0
1625155248.3930612,0.0,0.0,5.66,4.8,0.0,0.0,1.2804877758026123,-0.01416015625,0.01025390625,0.0,0.0018474392682995898,0.0,0.0017789779932799064,9.043243761997912e-05,0.001740994281296006,,,6.6125343320415375,5.459051867433912e-08,6.612534332041541,5.4590518674339116e-08,0.0,0.0
1625155248.3930612,0.0,0.0,5.66,4.8,0.0,0.0,1.2804877758026123,-0.01416015625,0.01025390625,0.0,0.0018474392682995898,0.0,0.0017789779932799064,9.043243761997912e-05,0.001740994281296006,,,6.6125343320415375,5.459051867433912e-08,6.612534332041541,5.4590518674339116e-08,0.0,0.0
1625155248.3930612,0.0,0.0,5.66,4.8,0.0,0.0,1.2804877758026123,-0.01416015625,0.01025390625,0.0,0.0018474392682995898,0.0,0.0017789779932799064,9.043243761997912e-05,0.001740994281296006,,,6.6125343320415375,5.459051867433912e-08,6.612534332041541,5.4590518674339116e-08,0.0,0.0
1625155248.3930612,0.0,0.0,5.66,4.8,0.0,0.0,1.2804877758026123,-0.01416015625,0.01025390625,0.0,0.0018474392682995898,0.0,0.0017789779932799064,9.043243761997912e-05,0.001740994281296006,,,6.6125343320415375,5.459051867433912e-08,6.612534332041541,5.4590518674339116e-08,0.0,0.0
1625155248.3930612,0.0,0.0,5.66,4.8,0.0,0.0,1.2804877758026123,-0.01416015625,0.01025390625,0.0,0.0018474392682995898,0.0,0.0017789779932799064,9.043243761997912e-05,0.001740994281296006,,,6.6125343320415375,5.459051867433912e-08,6.612534332041541,5.4590518674339116e-08,0.0,0.0
1625155248.3930612,0.0,0.0,5.66,4.8,0.0,0.0,1.2804877758026123,-0.01416015625,0.01025390625,0.0,0.0018474392682995898,0.0,0.0017789779932799064,9.043243761997912e-05,0.001740994281296006,,,6.6125343320415375,5.459051867433912e-08,6.612534332041541,5.4590518674339116e-08,0.0,0.0
1625155248.3930612,0.0,0.0,5.66,4.8,0.0,0.0,1.2804877758026123,-0.01416015625,0.01025390625,0.0,0.0018474392682995898,0.0,0.0017789779932799064,9.043243761997912e-05,0.001740994281296006,,,6.6125343320415375,5.459051867433912e-08,6.612534332041541,5.4590518674339116e-08,0.0,0.0
1625155248.3930612,0.0,0.0,5.64,4.8,0.0,0.0,1.2804877758026123,-0.0107421875,0.01171875,0.0,0.0018474392682995898,0.0,0.0017789779932799064,9.043243761997912e-05,0.001740994281296006,,,6.6125343320415375,5.459051867433912e-08,6.612534332041541,5.4590518674339116e-08,0.0,0.0
1625155248.3930612,0.0,0.0,5.64,4.8,0.0,0.0,1.2804877758026123,-0.0107421875,0.01171875,0.0,0.0018474392682995898,0.0,0.0017789779932799064,9.043243761997912e-05,0.001740994281296006,,,6.6125343320415375,5.459051867433912e-08,6.612534332041541,5.4590518674339116e-08,0.0,0.0
1625155248.3930612,0.0,0.0,5.64,4.8,0.0,0.0,1.2804877758026123,-0.0107421875,0.01171875,0.0,0.0018474392682995898,0.0,0.001759752607042027,9.043243761997912e-05,0.00165114337707843,,,6.612402031475551,4.921695953842145e-08,6.612402031475555,4.921695953842144e-08,0.0,0.0
1625155248.475061,0.0,0.0,5.64,4.8,0.0,0.0,1.2804877758026123,-0.0107421875,0.01171875,0.0,0.0020655264012465115,0.0,0.001759752607042027,0.00013993604104267708,0.00165114337707843,,,6.612402031475551,4.921695953842145e-08,6.612402031475555,4.921695953842144e-08,0.0,0.0
1625155248.475061,0.0,0.0,5.64,4.8,0.0,0.0,1.2804877758026123,-0.0107421875,0.01171875,0.0,0.0020655264012465115,0.0,0.001759752607042027,0.00013993604104267708,0.00165114337707843,,,6.612402031475551,4.921695953842145e-08,6.612402031475555,4.921695953842144e-08,0.0,0.0
1625155248.475061,0.0,0.0,5.64,4.8,0.0,0.0,1.2804877758026123,-0.0107421875,0.01171875,0.0,0.0020655264012465115,0.0,0.001759752607042027,0.00013993604104267708,0.00165114337707843,,,6.612402031475551,4.921695953842145e-08,6.612402031475555,4.921695953842144e-08,0.0,0.0
1625155248.475061,0.0,0.0,5.64,4.8,0.0,0.0,1.2804877758026123,-0.0107421875,0.01171875,0.0,0.0020655264012465115,0.0,0.0018637083290697193,0.00013993604104267708,0.0017377974499846024,,,6.612747797564119,5.2385503559753955e-08,6.612747797564123,5.238550355975395e-08,0.0,0.0
1625155248.475061,0.0,0.0,5.64,4.8,0.0,0.0,1.2804877758026123,-0.0107421875,0.01171875,0.0,0.001981677171494481,0.0,0.0018637083290697193,9.419778303790826e-05,0.0017377974499846024,,,6.612747797564119,5.2385503559753955e-08,6.612747797564123,5.238550355975395e-08,0.0,0.0
1625155248.513061,0.0,0.0,5.64,4.8,0.0,0.0,1.2804877758026123,-0.0107421875,0.01171875,0.0,0.001981677171494481,0.0,0.0018637083290697193,9.419778303790826e-05,0.0017377974499846024,,,6.612747797564119,5.2385503559753955e-08,6.612747797564123,5.238550355975395e-08,0.0,0.0
1625155248.513061,0.0,0.0,5.64,4.8,0.0,0.0,1.2804877758026123,-0.0107421875,0.01171875,0.0,0.001981677171494481,0.0,0.0018637083290697193,9.419778303790826e-05,0.0017377974499846024,,,6.612747797564119,5.2385503559753955e-08,6.612747797564123,5.238550355975395e-08,0.0,0.0
1625155248.513061,0.0,0.0,5.65,4.79,0.0,0.0,1.2804877758026123,-0.01318359375,0.00439453125,0.0,0.001981677171494481,0.0,0.0018637083290697193,9.419778303790826e-05,0.0017377974499846024,,,6.612747797564119,5.2385503559753955e-08,6.612747797564123,5.238550355975395e-08,0.0,0.0
1625155248.513061,0.0,0.0,5.65,4.79,0.0,0.0,1.2804877758026123,-0.01318359375,0.00439453125,0.0,0.001981677171494481,0.0,0.0018537960552808693,9.419778303790826e-05,0.0017141945086979055,,,6.612835586608737,5.122068035602929e-08,6.612835586608741,5.1220680356029285e-08,0.0,0.0
1625155248.513061,0.0,0.0,5.65,4.79,0.0,0.0,1.2804877758026123,-0.01318359375,0.00439453125,0.0,0.002121443446226166,0.0,0.0018537960552808693,0.00011095845197430869,0.0017141945086979055,,,6.612835586608737,5.122068035602929e-08,6.612835586608741,5.1220680356029285e-08,0.0,0.0
1625155248.579061,0.0,0.0,5.65,4.79,0.0,0.0,1.2804877758026123,-0.01318359375,0.00439453125,0.0,0.002121443446226166,0.0,0.0018537960552808693,0.00011095845197430869,0.0017141945086979055,,,6.612835586608737,5.122068035602929e-08,6.612835586608741,5.1220680356029285e-08,0.0,0.0
1625155248.579061,0.0,0.0,5.65,4.79,0.0,0.0,1.2804877758026123,-0.01318359375,0.00439453125,0.0,0.002121443446226166,0.0,0.0018537960552808693,0.00011095845197430869,0.0017141945086979055,,,6.612835586608737,5.122068035602929e-08,6.612835586608741,5.1220680356029285e-08,0.0,0.0
1625155248.579061,0.0,0.0,5.65,4.79,0.0,0.0,1.2804877758026123,-0.01318359375,0.00439453125,0.0,0.002121443446226166,0.0,0.0019215855339731276,0.00011095845197430869,0.0017556173251711692,,,6.613091115391765,5.373201923104216e-08,6.613091115391769,5.373201923104216e-08,0.0,0.0
1625155248.579061,0.0,0.0,5.65,4.79,0.0,0.0,1.2804877758026123,-0.01318359375,0.00439453125,0.0,0.002121443446226166,0.0,0.0019215855339731276,0.00011095845197430869,0.0017556173251711692,,,6.613091115391765,5.373201923104216e-08,6.613091115391769,5.373201923104216e-08,0.0,0.0
1625155248.579061,0.0,0.0,5.65,4.79,0.0,0.0,1.2804877758026123,-0.01318359375,0.00439453125,0.0,0.002121443446226166,0.0,0.0019215855339731276,0.00011095845197430869,0.0017556173251711692,,,6.613091115391765,5.373201923104216e-08,6.613091115391769,5.373201923104216e-08,0.0,0.0
1625155248.633061,0.0,0.0,5.65,4.79,0.0,0.0,1.2804877758026123,-0.01318359375,0.00439453125,0.0,0.0020009784346495694,0.0,0.0019215855339731276,9.587590165114014e-05,0.0017556173251711692,,,6.613091115391765,5.373201923104216e-08,6.613091115391769,5.373201923104216e-08,0.0,0.0
1625155248.633061,0.0,0.0,5.66,4.79,0.0,0.0,1.2804877758026123,-0.01318359375,0.00439453125,0.0,0.0020009784346495694,0.0,0.0019215855339731276,9.587590165114014e-05,0.0017556173251711692,,,6.613091115391765,5.373201923104216e-08,6.613091115391769,5.373201923104216e-08,0.0,0.0
1625155248.633061,0.0,0.0,5.66,4.79,0.0,0.0,1.2804877758026123,-0.01318359375,0.00439453125,0.0,0.0020009784346495694,0.0,0.0019215855339731276,9.587590165114014e-05,0.0017556173251711692,,,6.613091115391765,5.373201923104216e-08,6.613091115391769,5.373201923104216e-08,0.0,0.0
1625155248.633061,0.0,0.0,5.66,4.79,0.0,0.0,1.2804877758026123,-0.00927734375,0.0068359375,0.0,0.0020009784346495694,0.0,0.001884314818359868,9.587590165114014e-05,0.0017592289842577077,,,6.6132749207964086,5.450362413045269e-08,6.613274920796412,5.450362413045269e-08,0.0,0.0
1625155248.633061,0.0,0.0,5.66,4.79,0.0,0.0,1.2804877758026123,-0.00927734375,0.0068359375,0.0,0.0020009784346495694,0.0,0.001884314818359868,9.587590165114014e-05,0.0017592289842577077,,,6.6132749207964086,5.450362413045269e-08,6.613274920796412,5.450362413045269e-08,0.0,0.0
1625155248.633061,0.0,0.0,5.66,4.79,0.0,0.0,1.2804877758026123,-0.00927734375,0.0068359375,0.0,0.0020009784346495694,0.0,0.001884314818359868,9.587590165114014e-05,0.0017592289842577077,,,6.6132749207964086,5.450362413045269e-08,6.613274920796412,5.450362413045269e-08,0.0,0.0
1625155248.633061,0.0,0.0,5.66,4.79,0.0,0.0,1.2804877758026123,-0.00927734375,0.0068359375,0.0,0.0020009784346495694,0.0,0.001884314818359868,9.587590165114014e-05,0.0017592289842577077,,,6.6132749207964086,5.450362413045269e-08,6.613274920796412,5.450362413045269e-08,0.0,0.0
1625155248.633061,0.0,0.0,5.66,4.79,0.0,0.0,1.2804877758026123,-0.00927734375,0.0068359375,0.0,0.0020009784346495694,0.0,0.0018722003622364696,9.587590165114014e-05,0.0016711270418634382,,,6.613149205356958,4.9146318725319115e-08,6.613149205356962,4.9146318725319115e-08,0.0,0.0
1625155248.633061,0.0,0.0,5.66,4.79,0.0,0.0,1.2804877758026123,-0.00927734375,0.0068359375,0.0,0.0020009784346495694,0.0,0.0018722003622364696,9.587590165114014e-05,0.0016711270418634382,,,6.613149205356958,4.9146318725319115e-08,6.613149205356962,4.9146318725319115e-08,0.0,0.0
1625155248.693061,0.0,0.0,5.66,4.79,0.0,0.0,1.2804877758026123,-0.00927734375,0.0068359375,0.0,0.0020018950734924062,0.0,0.0018722003622364696,9.586440165386604e-05,0.0016711270418634382,,,6.613149205356958,4.9146318725319115e-08,6.613149205356962,4.9146318725319115e-08,0.0,0.0
1625155248.693061,0.0,0.0,5.66,4.79,0.0,0.0,1.2804877758026123,-0.00927734375,0.0068359375,0.0,0.0020018950734924062,0.0,0.0018722003622364696,9.586440165386604e-05,0.0016711270418634382,,,6.613149205356958,4.9146318725319115e-08,6.613149205356962,4.9146318725319115e-08,0.0,0.0
1625155248.693061,0.0,0.0,5.66,4.79,0.0,0.0,1.2804877758026123,-0.00927734375,0.0068359375,0.0,0.0020018950734924062,0.0,0.0018736037351633709,9.586440165386604e-05,0.0016945629942872033,,,6.613359690348137,5.064742569506197e-08,6.61335969034814,5.064742569506197e-08,0.0,0.0
1625155248.693061,0.0,0.0,5.66,4.79,0.0,0.0,1.2804877758026123,-0.00927734375,0.0068359375,0.0,0.0020018950734924062,0.0,0.0018736037351633709,9.586440165386604e-05,0.0016945629942872033,,,6.613359690348137,5.064742569506197e-08,6.61335969034814,5.064742569506197e-08,0.0,0.0
1625155248.693061,0.0,0.0,5.66,4.79,0.0,0.0,1.2804877758026123,-0.00927734375,0.0068359375,0.0,0.0020018950734924062,0.0,0.0018736037351633709,9.586440165386604e-05,0.0016945629942872033,,,6.613359690348137,5.064742569506197e-08,6.61335969034814,5.064742569506197e-08,0.0,0.0
1625155248.753061,0.0,0.0,5.66,4.79,0.0,0.0,1.2195122241973877,-0.01171875,0.0126953125,0.0,0.001875676653966648,0.0,0.0018736037351633709,9.124036099144041e-05,0.0016945629942872033,,,6.613359690348137,5.064742569506197e-08,6.61335969034814,5.064742569506197e-08,0.0,0.0
1625155248.753061,0.0,0.0,5.66,4.79,0.0,0.0,1.2195122241973877,-0.01171875,0.0126953125,0.0,0.001875676653966648,0.0,0.0018736037351633709,9.124036099144041e-05,0.0016945629942872033,,,6.613359690348137,5.064742569506197e-08,6.61335969034814,5.064742569506197e-08,0.0,0.0
1625155248.753061,0.0,0.0,5.66,4.79,0.0,0.0,1.2195122241973877,-0.01171875,0.0126953125,0.0,0.001875676653966648,0.0,0.0018109426219224077,9.124036099144041e-05,0.0017123045380759538,,,6.6135738082598685,5.258429610748456e-08,6.613573808259872,5.258429610748456e-08,0.0,0.0
1625155248.753061,0.0,0.0,5.66,4.79,0.0,0.0,1.2195122241973877,-0.01171875,0.0126953125,0.0,0.001875676653966648,0.0,0.0018109426219224077,9.124036099144041e-05,0.0017123045380759538,,,6.6135738082598685,5.258429610748456e-08,6.613573808259872,5.258429610748456e-08,0.0,0.0
1625155248.753061,0.0,0.0,5.66,4.79,0.0,0.0,1.2195122241973877,-0.01171875,0.0126953125,0.0,0.001875676653966648,0.0,0.0018109426219224077,9.124036099144041e-05,0.0017123045380759538,,,6.6135738082598685,5.258429610748456e-08,6.613573808259872,5.258429610748456e-08,0.0,0.0
1625155248.813061,0.0,0.0,5.66,4.79,0.0,0.0,1.2195122241973877,-0.01171875,0.0126953125,0.0,0.0017428987017029712,0.0,0.0018109426219224077,8.626391838504526e-05,0.0017123045380759538,,,6.6135738082598685,5.258429610748456e-08,6.613573808259872,5.258429610748456e-08,0.0,0.0
1625155248.813061,0.0,0.0,5.66,4.79,0.0,0.0,1.2195122241973877,-0.01171875,0.0126953125,0.0,0.0017428987017029712,0.0,0.0018109426219224077,8.626391838504526e-05,0.0017123045380759538,,,6.6135738082598685,5.258429610748456e-08,6.613573808259872,5.258429610748456e-08,0.0,0.0
1625155248.813061,0.0,0.0,5.66,4.79,0.0,0.0,1.3414634466171265,-0.015625,0.01220703125,0.0,0.0017428987017029712,0.0,0.0017127875435298961,8.626391838504526e-05,0.0017213853014438464,,,6.613790921061067,5.380018203130486e-08,6.613790921061071,5.380018203130486e-08,0.0,0.0
1625155248.813061,0.0,0.0,5.66,4.79,0.0,0.0,1.3414634466171265,-0.015625,0.01220703125,0.0,0.0017428987017029712,0.0,0.0017127875435298961,8.626391838504526e-05,0.0017213853014438464,,,6.613790921061067,5.380018203130486e-08,6.613790921061071,5.380018203130486e-08,0.0,0.0
1625155248.813061,0.0,0.0,5.66,4.79,0.0,0.0,1.3414634466171265,-0.015625,0.01220703125,0.0,0.0017428987017029712,0.0,0.0017127875435298961,8.626391838504526e-05,0.0017213853014438464,,,6.613790921061067,5.380018203130486e-08,6.613790921061071,5.380018203130486e-08,0.0,0.0
1625155248.873061,0.0,0.0,5.66,4.79,0.0,0.0,1.3414634466171265,-0.015625,0.01220703125,0.0,0.0017227194361947235,0.0,0.0017127875435298961,8.354789374733609e-05,0.0017213853014438464,,,6.613790921061067,5.380018203130486e-08,6.613790921061071,5.380018203130486e-08,0.0,0.0
1625155248.873061,0.0,0.0,5.66,4.79,0.0,0.0,1.3414634466171265,-0.015625,0.01220703125,0.0,0.0017227194361947235,0.0,0.0017127875435298961,8.354789374733609e-05,0.0017213853014438464,,,6.613790921061067,5.380018203130486e-08,6.613790921061071,5.380018203130486e-08,0.0,0.0
1625155248.873061,0.0,0.0,5.66,4.79,0.0,0.0,1.3414634466171265,-0.015625,0.01220703125,0.0,0.0017227194361947235,0.0,0.0016525823152988234,8.354789374733609e-05,0.0017250653979552259,,,6.61401049857013,5.4272181162759094e-08,6.614010498570133,5.4272181162759094e-08,0.0,0.0
1625155248.873061,0.0,0.0,5.66,4.79,0.0,0.0,1.3414634466171265,-0.015625,0.01220703125,0.0,0.0017227194361947235,0.0,0.0016525823152988234,8.354789374733609e-05,0.0017250653979552259,,,6.61401049857013,5.4272181162759094e-08,6.614010498570133,5.4272181162759094e-08,0.0,0.0
1625155248.873061,0.0,0.0,5.66,4.79,0.0,0.0,1.3414634466171265,-0.015625,0.01220703125,0.0,0.0017227194361947235,0.0,0.0016525823152988234,8.354789374733609e-05,0.0017250653979552259,,,6.61401049857013,5.4272181162759094e-08,6.614010498570133,5.4272181162759094e-08,0.0,0.0
1625155248.9330611,0.0,0.0,5.66,4.79,0.0,0.0,1.3414634466171265,-0.015625,0.01220703125,0.0,0.001614859933889456,0.0,0.0016525823152988234,7.900756161463258e-05,0.0017250653979552259,,,6.61401049857013,5.4272181162759094e-08,6.614010498570133,5.4272181162759094e-08,0.0,0.0
1625155248.9330611,0.0,0.0,5.66,4.79,0.0,0.0,1.3414634466171265,-0.015625,0.01220703125,0.0,0.001614859933889456,0.0,0.0015680437922315686,7.900756161463258e-05,0.0017219981819324847,,,6.614232077925447,5.435745711394769e-08,6.61423207792545,5.435745711394769e-08,0.0,0.0
1625155248.9330611,0.0,0.0,5.67,4.8,0.0,0.0,1.3414634466171265,-0.015625,0.01220703125,0.0,0.001614859933889456,0.0,0.0015680437922315686,7.900756161463258e-05,0.0017219981819324847,,,6.614232077925447,5.435745711394769e-08,6.61423207792545,5.435745711394769e-08,0.0,0.0
1625155248.9330611,0.0,0.0,5.67,4.8,0.0,0.0,1.2804877758026123,-0.00732421875,0.0126953125,0.0,0.001614859933889456,0.0,0.0015680437922315686,7.900756161463258e-05,0.0017219981819324847,,,6.614232077925447,5.435745711394769e-08,6.61423207792545,5.435745711394769e-08,0.0,0.0
1625155248.9330611,0.0,0.0,5.67,4.8,0.0,0.0,1.2804877758026123,-0.00732421875,0.0126953125,0.0,0.001614859933889456,0.0,0.0015680437922315686,7.900756161463258e-05,0.0017219981819324847,,,6.614232077925447,5.435745711394769e-08,6.61423207792545,5.435745711394769e-08,0.0,0.0
1625155248.993061,0.0,0.0,5.67,4.8,0.0,0.0,1.2804877758026123,-0.00732421875,0.0126953125,0.0,0.0017022905598119372,0.0,0.0015680437922315686,8.133783119981455e-05,0.0017219981819324847,,,6.614232077925447,5.435745711394769e-08,6.61423207792545,5.435745711394769e-08,0.0,0.0
1625155248.993061,0.0,0.0,5.67,4.8,0.0,0.0,1.2804877758026123,-0.00732421875,0.0126953125,0.0,0.0017022905598119372,0.0,0.0015569560811337629,8.133783119981455e-05,0.0017181181675172137,,,6.614455200193736,5.403562554902579e-08,6.614455200193739,5.403562554902579e-08,0.0,0.0
1625155248.993061,0.0,0.0,5.67,4.8,0.0,0.0,1.2804877758026123,-0.00732421875,0.0126953125,0.0,0.0017022905598119372,0.0,0.0015569560811337629,8.133783119981455e-05,0.0017181181675172137,,,6.614455200193736,5.403562554902579e-08,6.614455200193739,5.403562554902579e-08,0.0,0.0
1625155248.993061,0.0,0.0,5.67,4.8,0.0,0.0,1.2804877758026123,-0.00732421875,0.0126953125,0.0,0.0017022905598119372,0.0,0.0015569560811337629,8.133783119981455e-05,0.0017181181675172137,,,6.614455200193736,5.403562554902579e-08,6.614455200193739,5.403562554902579e-08,0.0,0.0
1625155248.993061,0.0,0.0,5.67,4.8,0.0,0.0,1.2804877758026123,-0.00732421875,0.0126953125,0.0,0.0017022905598119372,0.0,0.0015569560811337629,8.133783119981455e-05,0.0017181181675172137,,,6.614455200193736,5.403562554902579e-08,6.614455200193739,5.403562554902579e-08,0.0,0.0
1625155248.993061,0.0,0.0,5.67,4.8,0.0,0.0,1.2804877758026123,-0.00732421875,0.0126953125,0.0,0.0017022905598119372,0.0,0.0015577468673700742,8.133783119981455e-05,0.0016313390865536927,,,6.614319385598793,4.876547880425865e-08,6.6143193855987965,4.876547880425865e-08,0.0,0.0
1625155248.993061,0.0,0.0,5.67,4.8,0.0,0.0,1.2804877758026123,-0.00732421875,0.0126953125,0.0,0.0017022905598119372,0.0,0.0015577468673700742,8.133783119981455e-05,0.0016313390865536927,,,6.614319385598793,4.876547880425865e-08,6.6143193855987965,4.876547880425865e-08,0.0,0.0
1625155248.993061,0.0,0.0,5.67,4.79,0.0,0.0,1.2804877758026123,-0.00732421875,0.0126953125,0.0,0.0017022905598119372,0.0,0.0015577468673700742,8.133783119981455e-05,0.0016313390865536927,,,6.614319385598793,4.876547880425865e-08,6.6143193855987965,4.876547880425865e-08,0.0,0.0
1625155248.993061,0.0,0.0,5.67,4.79,0.0,0.0,1.2804877758026123,-0.0087890625,0.01611328125,0.0,0.0017022905598119372,0.0,0.0015577468673700742,8.133783119981455e-05,0.0016313390865536927,,,6.614319385598793,4.876547880425865e-08,6.6143193855987965,4.876547880425865e-08,0.0,0.0
1625155248.993061,0.0,0.0,5.67,4.79,0.0,0.0,1.2804877758026123,-0.0087890625,0.01611328125,0.0,0.0017022905598119372,0.0,0.0015577468673700742,8.133783119981455e-05,0.0016313390865536927,,,6.614319385598793,4.876547880425865e-08,6.6143193855987965,4.876547880425865e-08,0.0,0.0
1625155249.080276,0.0,0.0,5.67,4.79,0.0,0.0,1.2804877758026123,-0.0087890625,0.01611328125,0.0,0.0017899042212412056,0.0,0.0015577468673700742,0.00013021081974272803,0.0016313390865536927,,,6.614319385598793,4.876547880425865e-08,6.6143193855987965,4.876547880425865e-08,0.0,0.0
1625155249.080276,0.0,0.0,5.67,4.79,0.0,0.0,1.2804877758026123,-0.0087890625,0.01611328125,0.0,0.0017899042212412056,0.0,0.0016291031956458318,0.00013021081974272803,0.0017119641766952774,,,6.614700805296699,5.118027513513376e-08,6.614700805296702,5.118027513513376e-08,0.0,0.0
1625155249.080276,0.0,0.0,5.67,4.79,0.0,0.0,1.2804877758026123,-0.0087890625,0.01611328125,0.0,0.0017899042212412056,0.0,0.0016291031956458318,0.00013021081974272803,0.0017119641766952774,,,6.614700805296699,5.118027513513376e-08,6.614700805296702,5.118027513513376e-08,0.0,0.0
1625155249.080276,0.0,0.0,5.67,4.79,0.0,0.0,1.2804877758026123,-0.0087890625,0.01611328125,0.0,0.0017899042212412056,0.0,0.0016291031956458318,0.00013021081974272803,0.0017119641766952774,,,6.614700805296699,5.118027513513376e-08,6.614700805296702,5.118027513513376e-08,0.0,0.0
1625155249.080276,0.0,0.0,5.67,4.79,0.0,0.0,1.2804877758026123,-0.0087890625,0.01611328125,0.0,0.0017899042212412056,0.0,0.0016291031956458318,0.00013021081974272803,0.0017119641766952774,,,6.614700805296699,5.118027513513376e-08,6.614700805296702,5.118027513513376e-08,0.0,0.0
1625155249.114276,0.0,0.0,5.67,4.79,0.0,0.0,1.2804877758026123,-0.0087890625,0.01611328125,0.0,0.001724221319791322,0.0,0.0016291031956458318,8.252812961767776e-05,0.0017119641766952774,,,6.614700805296699,5.118027513513376e-08,6.614700805296702,5.118027513513376e-08,0.0,0.0
1625155249.114276,0.0,0.0,5.67,4.79,0.0,0.0,1.2804877758026123,-0.0087890625,0.01611328125,0.0,0.001724221319791322,0.0,0.0016291031956458318,8.252812961767776e-05,0.0017119641766952774,,,6.614700805296699,5.118027513513376e-08,6.614700805296702,5.118027513513376e-08,0.0,0.0
1625155249.114276,0.0,0.0,5.67,4.8,0.0,0.0,1.2804877758026123,-0.0087890625,0.01611328125,0.0,0.001724221319791322,0.0,0.0016291031956458318,8.252812961767776e-05,0.0017119641766952774,,,6.614700805296699,5.118027513513376e-08,6.614700805296702,5.118027513513376e-08,0.0,0.0
1625155249.114276,0.0,0.0,5.67,4.8,0.0,0.0,1.2804877758026123,-0.0087890625,0.01611328125,0.0,0.001724221319791322,0.0,0.0016291031956458318,8.252812961767776e-05,0.0017119641766952774,,,6.614700805296699,5.118027513513376e-08,6.614700805296702,5.118027513513376e-08,0.0,0.0
1625155249.114276,0.0,0.0,5.67,4.8,0.0,0.0,1.2804877758026123,-0.0126953125,0.00732421875,0.0,0.001724221319791322,0.0,0.0016100554527259266,8.252812961767776e-05,0.0016738462697355302,,,6.614763758194578,4.911483662415601e-08,6.614763758194582,4.911483662415601e-08,0.0,0.0
1625155249.174276,0.0,0.0,5.67,4.8,0.0,0.0,1.2804877758026123,-0.0126953125,0.00732421875,0.0,0.0016148723982494792,0.0,0.0016100554527259266,7.852546496845263e-05,0.0016738462697355302,,,6.614763758194578,4.911483662415601e-08,6.614763758194582,4.911483662415601e-08,0.0,0.0
1625155249.174276,0.0,0.0,5.67,4.8,0.0,0.0,1.2804877758026123,-0.0126953125,0.00732421875,0.0,0.0016148723982494792,0.0,0.0016100554527259266,7.852546496845263e-05,0.0016738462697355302,,,6.614763758194578,4.911483662415601e-08,6.614763758194582,4.911483662415601e-08,0.0,0.0
1625155249.174276,0.0,0.0,5.67,4.8,0.0,0.0,1.2804877758026123,-0.0126953125,0.00732421875,0.0,0.0016148723982494792,0.0,0.0016100554527259266,7.852546496845263e-05,0.0016738462697355302,,,6.614763758194578,4.911483662415601e-08,6.614763758194582,4.911483662415601e-08,0.0,0.0
1625155249.174276,0.0,0.0,5.67,4.8,0.0,0.0,1.2804877758026123,-0.0126953125,0.00732421875,0.0,0.0016148723982494792,0.0,0.0016100554527259266,7.852546496845263e-05,0.0016738462697355302,,,6.614763758194578,4.911483662415601e-08,6.614763758194582,4.911483662415601e-08,0.0,0.0
1625155249.174276,0.0,0.0,5.67,4.8,0.0,0.0,1.2804877758026123,-0.0126953125,0.00732421875,0.0,0.0016148723982494792,0.0,0.001545616514978156,7.852546496845263e-05,0.0016733542805720733,,,6.614982467245327,5.001941554427686e-08,6.614982467245331,5.001941554427686e-08,0.0,0.0
1625155249.234276,0.0,0.0,5.67,4.8,0.0,0.0,1.2804877758026123,-0.0126953125,0.00732421875,0.0,0.001768497256134153,0.0,0.001545616514978156,8.46948507200958e-05,0.0016733542805720733,,,6.614982467245327,5.001941554427686e-08,6.614982467245331,5.001941554427686e-08,0.0,0.0
1625155249.234276,0.0,0.0,5.67,4.8,0.0,0.0,1.2804877758026123,-0.0126953125,0.00732421875,0.0,0.001768497256134153,0.0,0.001545616514978156,8.46948507200958e-05,0.0016733542805720733,,,6.614982467245327,5.001941554427686e-08,6.614982467245331,5.001941554427686e-08,0.0,0.0
1625155249.234276,0.0,0.0,5.68,4.81,0.0,0.0,1.2804877758026123,-0.0126953125,0.00732421875,0.0,0.001768497256134153,0.0,0.001545616514978156,8.46948507200958e-05,0.0016733542805720733,,,6.614982467245327,5.001941554427686e-08,6.614982467245331,5.001941554427686e-08,0.0,0.0
1625155249.234276,0.0,0.0,5.68,4.81,0.0,0.0,1.2804877758026123,-0.0126953125,0.00732421875,0.0,0.001768497256134153,0.0,0.0015612300361694809,8.46948507200958e-05,0.001673724729181442,,,6.615203290211979,5.0456074633803245e-08,6.615203290211983,5.045607463380325e-08,0.0,0.0
1625155249.234276,0.0,0.0,5.68,4.81,0.0,0.0,1.2195122241973877,-0.013671875,0.0146484375,0.0,0.001768497256134153,0.0,0.0015612300361694809,8.46948507200958e-05,0.001673724729181442,,,6.615203290211979,5.0456074633803245e-08,6.615203290211983,5.045607463380325e-08,0.0,0.0
1625155249.294276,0.0,0.0,5.68,4.81,0.0,0.0,1.2195122241973877,-0.013671875,0.0146484375,0.0,0.0016558762199908187,0.0,0.0015612300361694809,8.056243112293116e-05,0.001673724729181442,,,6.615203290211979,5.0456074633803245e-08,6.615203290211983,5.045607463380325e-08,0.0,0.0
1625155249.294276,0.0,0.0,5.68,4.81,0.0,0.0,1.2195122241973877,-0.013671875,0.0146484375,0.0,0.0016558762199908187,0.0,0.0015612300361694809,8.056243112293116e-05,0.001673724729181442,,,6.615203290211979,5.0456074633803245e-08,6.615203290211983,5.045607463380325e-08,0.0,0.0
1625155249.294276,0.0,0.0,5.68,4.81,0.0,0.0,1.2195122241973877,-0.013671875,0.0146484375,0.0,0.0016558762199908187,0.0,0.0015612300361694809,8.056243112293116e-05,0.001673724729181442,,,6.615203290211979,5.0456074633803245e-08,6.615203290211983,5.045607463380325e-08,0.0,0.0
1625155249.294276,0.0,0.0,5.68,4.81,0.0,0.0,1.2195122241973877,-0.013671875,0.0146484375,0.0,0.0016558762199908187,0.0,0.0015612300361694809,8.056243112293116e-05,0.001673724729181442,,,6.615203290211979,5.0456074633803245e-08,6.615203290211983,5.045607463380325e-08,0.0,0.0
1625155249.294276,0.0,0.0,5.68,4.81,0.0,0.0,1.2195122241973877,-0.013671875,0.0146484375,0.0,0.0016558762199908187,0.0,0.001509352884175755,8.056243112293116e-05,0.001668512686472124,,,6.615425837622079,5.0879234988920294e-08,6.615425837622083,5.0879234988920294e-08,0.0,0.0
1625155249.294276,0.0,0.0,5.68,4.81,0.0,0.0,1.2195122241973877,-0.013671875,0.0146484375,0.0,0.0018135798970535428,0.0,0.001509352884175755,8.548401699572812e-05,0.001668512686472124,,,6.615425837622079,5.0879234988920294e-08,6.615425837622083,5.0879234988920294e-08,0.0,0.0
1625155249.294276,0.0,0.0,5.68,4.81,0.0,0.0,1.2195122241973877,-0.0107421875,0.0107421875,0.0,0.0018135798970535428,0.0,0.001509352884175755,8.548401699572812e-05,0.001668512686472124,,,6.615425837622079,5.0879234988920294e-08,6.615425837622083,5.0879234988920294e-08,0.0,0.0
1625155249.294276,0.0,0.0,5.67,4.79,0.0,0.0,1.2195122241973877,-0.0107421875,0.0107421875,0.0,0.0018135798970535428,0.0,0.001509352884175755,8.548401699572812e-05,0.001668512686472124,,,6.615425837622079,5.0879234988920294e-08,6.615425837622083,5.0879234988920294e-08,0.0,0.0
1625155249.294276,0.0,0.0,5.67,4.79,0.0,0.0,1.2195122241973877,-0.0107421875,0.0107421875,0.0,0.0018135798970535428,0.0,0.001568730118271311,8.548401699572812e-05,0.0015880246289098334,,,6.61529219521837,4.6180025773006065e-08,6.615292195218373,4.618002577300606e-08,0.0,0.0
1625155249.294276,0.0,0.0,5.67,4.79,0.0,0.0,1.2195122241973877,-0.0107421875,0.0107421875,0.0,0.0018135798970535428,0.0,0.001568730118271311,8.548401699572812e-05,0.0015880246289098334,,,6.61529219521837,4.6180025773006065e-08,6.615292195218373,4.618002577300606e-08,0.0,0.0
1625155249.372276,0.0,0.0,5.67,4.79,0.0,0.0,1.2195122241973877,-0.0107421875,0.0107421875,0.0,0.0018419310456444197,0.0,0.001568730118271311,0.00011979688899556868,0.0015880246289098334,,,6.61529219521837,4.6180025773006065e-08,6.615292195218373,4.618002577300606e-08,0.0,0.0
1625155249.372276,0.0,0.0,5.67,4.79,0.0,0.0,1.2195122241973877,-0.0107421875,0.0107421875,0.0,0.0018419310456444197,0.0,0.001568730118271311,0.00011979688899556868,0.0015880246289098334,,,6.61529219521837,4.6180025773006065e-08,6.615292195218373,4.618002577300606e-08,0.0,0.0
1625155249.372276,0.0,0.0,5.67,4.79,0.0,0.0,1.2195122241973877,-0.0107421875,0.0107421875,0.0,0.0018419310456444197,0.0,0.0016616703506208684,0.00011979688899556868,0.0016515020158759572,,,6.61561401746319,4.8296206619946184e-08,6.615614017463193,4.829620661994618e-08,0.0,0.0
1625155249.372276,0.0,0.0,5.67,4.79,0.0,0.0,1.2195122241973877,-0.0107421875,0.0107421875,0.0,0.0018419310456444197,0.0,0.0016616703506208684,0.00011979688899556868,0.0016515020158759572,,,6.61561401746319,4.8296206619946184e-08,6.615614017463193,4.829620661994618e-08,0.0,0.0
1625155249.372276,0.0,0.0,5.67,4.79,0.0,0.0,1.2195122241973877,-0.0107421875,0.0107421875,0.0,0.0018419310456444197,0.0,0.0016616703506208684,0.00011979688899556868,0.0016515020158759572,,,6.61561401746319,4.8296206619946184e-08,6.615614017463193,4.829620661994618e-08,0.0,0.0
1625155249.4142761,0.0,0.0,5.67,4.79,0.0,0.0,1.2195122241973877,-0.0107421875,0.0107421875,0.0,0.0017600694866479747,0.0,0.0016616703506208684,8.479357092197395e-05,0.0016515020158759572,,,6.61561401746319,4.8296206619946184e-08,6.615614017463193,4.829620661994618e-08,0.0,0.0
1625155249.4142761,0.0,0.0,5.67,4.79,0.0,0.0,1.2195122241973877,-0.0107421875,0.0107421875,0.0,0.0017600694866479747,0.0,0.0016616703506208684,8.479357092197395e-05,0.0016515020158759572,,,6.61561401746319,4.8296206619946184e-08,6.615614017463193,4.829620661994618e-08,0.0,0.0
1625155249.4142761,0.0,0.0,5.71,4.79,0.0,0.0,1.3414634466171265,-0.00830078125,0.01220703125,0.0,0.0017600694866479747,0.0,0.0016452807706365822,8.479357092197395e-05,0.0016299283060414367,,,6.615725460144404,4.7639525771830946e-08,6.615725460144407,4.763952577183093e-08,0.0,0.0
1625155249.4142761,0.0,0.0,5.71,4.79,0.0,0.0,1.3414634466171265,-0.00830078125,0.01220703125,0.0,0.0017600694866479747,0.0,0.0016452807706365822,8.479357092197395e-05,0.0016299283060414367,,,6.615725460144404,4.7639525771830946e-08,6.615725460144407,4.763952577183093e-08,0.0,0.0
1625155249.4142761,0.0,0.0,5.71,4.79,0.0,0.0,1.3414634466171265,-0.00830078125,0.01220703125,0.0,0.0017600694866479747,0.0,0.0016452807706365822,8.479357092197395e-05,0.0016299283060414367,,,6.615725460144404,4.7639525771830946e-08,6.615725460144407,4.763952577183093e-08,0.0,0.0
1625155249.476276,0.0,0.0,5.71,4.79,0.0,0.0,1.3414634466171265,-0.00830078125,0.01220703125,0.0,0.0019833105730243635,0.0,0.0016452807706365822,9.446914284577597e-05,0.0016299283060414367,,,6.615725460144404,4.7639525771830946e-08,6.615725460144407,4.763952577183093e-08,0.0,0.0
1625155249.476276,0.0,0.0,5.71,4.79,0.0,0.0,1.3414634466171265,-0.00830078125,0.01220703125,0.0,0.0019833105730243635,0.0,0.0017434470496002488,9.446914284577597e-05,0.0016506297175622308,,,6.615956399356595,4.922092028495813e-08,6.615956399356598,4.922092028495812e-08,0.0,0.0
1625155249.476276,0.0,0.0,5.71,4.79,0.0,0.0,1.3414634466171265,-0.00830078125,0.01220703125,0.0,0.0019833105730243635,0.0,0.0017434470496002488,9.446914284577597e-05,0.0016506297175622308,,,6.615956399356595,4.922092028495813e-08,6.615956399356598,4.922092028495812e-08,0.0,0.0
1625155249.476276,0.0,0.0,5.71,4.79,0.0,0.0,1.3414634466171265,-0.00830078125,0.01220703125,0.0,0.0019833105730243635,0.0,0.0017434470496002488,9.446914284577597e-05,0.0016506297175622308,,,6.615956399356595,4.922092028495813e-08,6.615956399356598,4.922092028495812e-08,0.0,0.0
1625155249.476276,0.0,0.0,5.71,4.79,0.0,0.0,1.3414634466171265,-0.00830078125,0.01220703125,0.0,0.0019833105730243635,0.0,0.0017434470496002488,9.446914284577597e-05,0.0016506297175622308,,,6.615956399356595,4.922092028495813e-08,6.615956399356598,4.922092028495812e-08,0.0,0.0
1625155249.534276,0.0,0.0,5.71,4.79,0.0,0.0,1.3414634466171265,-0.00830078125,0.01220703125,0.0,0.0018629865619037632,0.0,0.0017434470496002488,8.867082141308228e-05,0.0016506297175622308,,,6.615956399356595,4.922092028495813e-08,6.615956399356598,4.922092028495812e-08,0.0,0.0
1625155249.534276,0.0,0.0,5.7,4.79,0.0,0.0,1.3414634466171265,-0.00830078125,0.01220703125,0.0,0.0018629865619037632,0.0,0.0017434470496002488,8.867082141308228e-05,0.0016506297175622308,,,6.615956399356595,4.922092028495813e-08,6.615956399356598,4.922092028495812e-08,0.0,0.0
1625155249.534276,0.0,0.0,5.7,4.79,0.0,0.0,1.3414634466171265,-0.00830078125,0.01220703125,0.0,0.0018629865619037632,0.0,0.0017246403010228273,8.867082141308228e-05,0.0016576424557604545,,,6.616164896963374,5.051465415271627e-08,6.616164896963378,5.051465415271626e-08,0.0,0.0
1625155249.534276,0.0,0.0,5.7,4.79,0.0,0.0,1.3414634466171265,-0.0146484375,0.00537109375,0.0,0.0018629865619037632,0.0,0.0017246403010228273,8.867082141308228e-05,0.0016576424557604545,,,6.616164896963374,5.051465415271627e-08,6.616164896963378,5.051465415271626e-08,0.0,0.0
1625155249.534276,0.0,0.0,5.7,4.79,0.0,0.0,1.3414634466171265,-0.0146484375,0.00537109375,0.0,0.0018629865619037632,0.0,0.0017246403010228273,8.867082141308228e-05,0.0016576424557604545,,,6.616164896963374,5.051465415271627e-08,6.616164896963378,5.051465415271626e-08,0.0,0.0
1625155249.594276,0.0,0.0,5.7,4.79,0.0,0.0,1.3414634466171265,-0.0146484375,0.00537109375,0.0,0.0018559479249977218,0.0,0.0017246403010228273,8.890294652978077e-05,0.0016576424557604545,,,6.616164896963374,5.051465415271627e-08,6.616164896963378,5.051465415271626e-08,0.0,0.0
1625155249.594276,0.0,0.0,5.7,4.79,0.0,0.0,1.3414634466171265,-0.0146484375,0.00537109375,0.0,0.0018559479249977218,0.0,0.0017165655914605134,8.890294652978077e-05,0.0016663640520466418,,,6.616387246135384,5.1704746056266894e-08,6.616387246135387,5.17047460562669e-08,0.0,0.0
1625155249.594276,0.0,0.0,5.7,4.79,0.0,0.0,1.3414634466171265,-0.0146484375,0.00537109375,0.0,0.0018559479249977218,0.0,0.0017165655914605134,8.890294652978077e-05,0.0016663640520466418,,,6.616387246135384,5.1704746056266894e-08,6.616387246135387,5.17047460562669e-08,0.0,0.0
