time,la_x,la_y,uwb_x,uwb_y,vel_linear_x,vel_angular_z,mpu_ang_vel_z,mpu_linear_acc_x,mpu_linear_acc_y,odom_linear_x,odom_angular_z,odom_filtered_linear_x,odom_filtered_angular_z,odom_yaw,odom_filtered_yaw,cmd_linear_x,cmd_angular_z,var_x,var_y,var_xvel,var_yvel,vel_linear_y,odom_linear_y,odom_filtered_linear_y,cmd_linear_y
1626092295.871021,1.699631582889511e-05,-5.588771890646038e-09,0.0,0.0,,,1.402438998222351,-0.015625,0.01123046875,,,6.324299493678903e-06,0.001708528805709875,,-0.6684555134024558,,,6.181334902273372,6.1813352117808344,0.010276652088205447,0.010276652088569978,,,1.9281706305421515e-06,
1626092295.931021,1.6389125395604113e-05,-3.326793631220363e-08,5.65,4.93,1.12635188997956e-06,1.0477691830601543e-05,1.402438998222351,-0.015625,0.01123046875,3.125259711092482e-07,0.001655548674576469,6.1849779891876675e-06,0.0016633340618371856,-0.6699967460873576,-0.6684471993438055,,,6.181557144425679,6.181557453933362,0.0104334139434198,0.010433413943750792,0.0,1.567444380910617e-06,1.874996993423571e-06,
1626092295.9910212,1.5791546140740855e-05,-5.990148884703678e-08,5.66,4.93,1.12635188997956e-06,1.0477691830601543e-05,1.3414634466171265,-0.0029296875,0.00927734375,3.1276168317548174e-07,0.0015456541828590075,5.091292891086144e-06,0.0015265267683829647,-0.6700015169841298,-0.6684559237057284,,,6.182305211785295,6.182305521292708,0.00992196219672595,0.009921962196922254,0.0,1.4536207805631705e-06,1.657545936986411e-06,
1626092296.005021,1.533558110506526e-05,-7.870572873988126e-08,5.68,4.97,1.12635188997956e-06,1.0477691830601543e-05,1.402438998222351,-0.009765625,0.00244140625,3.1284740054290406e-07,0.001797823595154006,4.324966323244926e-06,0.0015909798482641733,-0.66999331297416,-0.6685175470928496,,,6.1830446735815245,6.183044983088821,0.00974193366112746,0.00974193366124793,0.0,1.3157952844035706e-06,1.4639514698116112e-06,
1626092296.089021,1.4806680235909776e-05,-9.758881429653815e-08,5.67,4.93,1.1332620033499552e-06,1.0541972187638748e-05,1.2195122241973877,-0.01416015625,0.005859375,3.126653230008697e-07,0.001119104121376497,3.6334329241530565e-06,0.0011654682996792452,-0.6700208365824223,-0.6686197829928975,,,6.183786422585772,6.183786732092993,0.009425170992915594,0.009425170992992072,0.0,1.1929788658859051e-06,1.2946742205122486e-06,
1626092296.111021,1.4357312066557096e-05,-1.1741747547524639e-07,5.67,4.92,1.12635188997956e-06,1.0477691830601543e-05,1.4634146690368652,-0.0107421875,0.00830078125,3.096747226908891e-07,0.0010830993079914406,3.0809601624813946e-06,0.0009275967864896069,-0.6700159217711682,-0.66875064069365,,,6.184587358236345,6.184587667743643,0.009240978550675478,0.00924097855072839,0.0,1.0869921805714969e-06,1.1465207305113821e-06,
1626092296.171021,1.3892100102735703e-05,-1.3727054473855717e-07,5.67,4.92,1.1195255638085655e-06,1.0414190910523757e-05,1.3414634466171265,-0.001953125,0.0166015625,3.1623259733781253e-07,0.0006712240886735033,2.8576795247156713e-06,0.0006518423475320984,-0.6700442437163046,-0.6688704790731702,,,6.185581493091538,6.1855818025992875,0.010209108035420208,0.010209108035464121,0.0,9.71269928308074e-07,1.0095237992244752e-06,
1626092296.2310212,1.3420013185381303e-05,-1.5676006405152213e-07,5.68,4.92,1.1332620033499552e-06,1.0541972187638748e-05,1.3414634466171265,-0.00244140625,0.00830078125,3.1565337125968113e-07,0.0009026439652965423,2.494442680755137e-06,0.0007172597971362572,-0.6700358269267451,-0.6690153275841618,,,6.186317355836115,6.186317665343853,0.01022971437958967,0.010229714379626125,0.0,8.900513493775482e-07,9.054845087167136e-07,
1626092296.291021,1.2948095044537113e-05,-1.7557640573864007e-07,5.67,4.91,1.12635188997956e-06,1.0477691830601543e-05,1.3414634466171265,-0.0048828125,0.00927734375,3.145467585643402e-07,0.0005555403301020105,2.114241880459409e-06,0.0005567975594081553,-0.6700493023385172,-0.6691048702280221,,,6.1870648376160515,6.187065147123739,0.009876409091385267,0.00987640909141673,0.0,8.185033346127245e-07,8.193442037330009e-07,
1626092296.2970212,1.2598750597417522e-05,-1.8896638176477488e-07,5.66,4.91,1.12635188997956e-06,1.0477691830601543e-05,1.2804877758026123,-0.0068359375,0.0068359375,3.1387623562071183e-07,0.0008820030889423536,1.8313472807472022e-06,0.0007440306286257749,-0.6700364730688074,-0.6691950826397463,,,6.187803542720941,6.1878038522286065,0.00973234612621142,0.009732346126239234,0.0,7.566636453633273e-07,7.429943242733418e-07,
1626092296.351021,1.2233788848598171e-05,-2.030120675557479e-07,5.65,4.91,1.1332620033499552e-06,1.0541972187638748e-05,1.3414634466171265,-0.01171875,0.00732421875,3.132579329562806e-07,0.0006652037155885358,1.570926883895082e-06,0.0006688247809975337,-0.6700443846963183,-0.6692596180549146,,,6.188544653945854,6.1885449634534995,0.009423390754915316,0.009423390754940185,0.0,7.035370625081458e-07,6.797515965912415e-07,
1626092296.411021,1.1850327357239413e-05,-2.1717223458672147e-07,5.65,4.91,1.1332620033499552e-06,1.0541972187638748e-05,1.2195122241973877,-0.0068359375,0.00244140625,3.100129354828106e-07,0.0008959183996683799,1.5057130014113203e-06,0.0006448199630509499,-0.6700284935726427,-0.6692877897346844,,,6.189421391987327,6.189421701495201,0.010438030383324975,0.010438030383349568,0.0,6.586506078609401e-07,6.235641233103291e-07,
1626092296.4710212,1.145712092707451e-05,-2.3108721775111817e-07,5.66,4.92,1.1332620033499552e-06,1.0541972187638748e-05,1.402438998222351,0.001953125,0.0166015625,3.129359927037668e-07,0.000456597867428188,1.285676530386969e-06,0.0004921256667397367,-0.6700537770035355,-0.6693252158222941,,,6.190384400150533,6.190384709658412,0.010353505484262124,0.010353505484283588,0.0,6.108044074034441e-07,5.70321152438751e-07,
1626092296.531021,1.1060907390170516e-05,-2.445198668801019e-07,5.67,4.91,0.004296371713280678,-0.0329563282430172,1.3414634466171265,-0.0009765625,0.0078125,0.044694502377924564,0.0007654448900432334,0.0037389119246307827,0.0005526762443046456,-0.6704132032013853,-0.6693863491045132,0.5,0.0,6.19089951701803,6.190899826525852,0.010048461262650627,0.010048461262669447,0.0,8.844307055752065e-07,5.446860284788749e-07,0.0
1626092296.591021,1.0666898951602633e-05,-2.5727923925976645e-07,5.69,4.91,0.4474623203277588,0.016734449192881584,0.060975611209869385,0.103515625,0.8193359375,0.10495488433143804,0.002078816048430005,0.04926784895305311,-0.0001687354785744979,-0.6784343672396499,-0.6712834184471367,0.5,0.0,6.19165577530682,6.191656085581006,0.009544963332141559,0.009544969471191057,0.0,-5.607395636163656e-05,-1.2041650999836427e-05,0.0
1626092296.651021,1.007916043261647e-05,-2.7577550034504065e-07,5.71,4.79,0.4912565350532532,-0.01670338399708271,2.9268293380737305,0.634765625,-0.26171875,0.20750794680306964,0.02044200051423697,0.1705013064768342,0.01726983337196172,-0.6693001823466362,-0.6680434174668811,0.5,0.0,6.193749859612727,6.193750285097593,0.009778293771320438,0.00977848226187176,0.0,0.00013280105409726138,7.055279186473664e-05,0.0
1626092296.7110212,9.759961296056287e-06,-2.8502193683761333e-07,5.61,4.87,0.48693975806236267,0.015903973951935768,1.0365853309631348,0.0537109375,0.02001953125,0.22955439668987423,0.013740075065456306,0.21401087028769647,0.013669097932984167,-0.6688611866377818,-0.6667371816388707,0.5,0.0,6.194997147047568,6.194997812110491,0.009322289804972864,0.009322694653040331,0.0,0.00010245291903479078,9.960215572232792e-05,0.0
1626092296.7710211,9.433672160194758e-06,-2.939344217288324e-07,5.66,4.69,0.11163130402565002,0.016912048682570457,0.8536585569381714,-0.08349609375,0.1435546875,0.21294871036416,0.009167748655743413,0.23679721780858307,0.009904865114290161,-0.6687586505442216,-0.6667143113944567,0.5,0.0,6.196787392534712,6.196788591953517,0.01036728362117312,0.01036794637622293,0.0,4.704011315356423e-05,8.302708353556695e-05,0.0
1626092296.831021,9.10565251445429e-06,-3.023654080595285e-07,5.68,4.59,0.08246587961912155,0.03342488780617714,0.6097561120986938,-0.02783203125,-0.47021484375,0.20303749974324542,0.005486216077946367,0.23001152783277146,0.005602894248590827,-0.6679715840655845,-0.6668432941982112,0.5,0.0,6.197787910754542,6.197789425850366,0.010051858329026839,0.010052622601148064,0.0,3.388419659052861e-05,6.466594503096747e-05,0.0
1626092296.891021,8.78001274677791e-06,-3.1019687356041457e-07,5.68,4.6,0.3941907286643982,-0.01660354621708393,1.0365853309631348,0.1005859375,-0.00634765625,0.17671808167360792,0.005801016952569032,0.21832383859257276,0.005217094459556339,-0.6675354716735952,-0.6667499235036609,0.5,0.0,6.199161899767164,6.199163881945401,0.009598640120545631,0.00959947835019794,0.0,3.3525071661250544e-05,4.8316051563824e-05,0.0
1626092296.901021,8.534989157804588e-06,-3.154601098798602e-07,5.7,4.47,0.5156350135803223,-0.016887500882148743,1.585365891456604,0.1005859375,-0.2431640625,0.20668905148676706,0.008243121353607892,0.20919575375135352,0.00704075915490964,-0.6679642633911324,-0.6666121846273071,0.0,0.0,6.2007902066149745,6.200792689507884,0.009744582211034043,0.009745401526504587,0.0,-6.8754742200333466e-06,2.3208937081919835e-05,0.0
1626092296.9510212,8.28608568646686e-06,-3.2106708892898775e-07,5.7,4.38,0.3588179051876068,-0.016597939655184746,-1.1585365533828735,-0.0654296875,0.12109375,0.228085702623421,0.008991172693244981,0.2215839679389253,0.008446328922391185,-0.6671375697693394,-0.6662080842190837,0.0,0.0,6.201729951768355,6.201732730347465,0.008904267259749635,0.008905061198429143,0.0,7.805021971756206e-06,1.286152831323421e-05,0.0
1626092297.0110211,8.025098750962753e-06,-3.264526606089475e-07,5.68,4.3,0.03901274874806404,0.3629092872142792,-4.45121955871582,0.0009765625,0.017578125,0.179859034123882,0.1273387724405122,0.2199824586028129,0.07580849297329975,-0.6507246180939448,-0.6557729986340842,0.0,1.0,6.203591480325438,6.203594866205575,0.01043024776405476,0.010431134726669209,0.0,1.0888721613528502e-06,1.1095733619130637e-05,0.0
1626092297.089021,7.737673305734318e-06,-3.307056036931031e-07,5.66,4.26,0.010203097946941853,0.8898435235023499,-51.585365295410156,-0.1611328125,0.0048828125,0.10709607674093757,0.14875915673529744,0.17539289150296716,0.14371103623048861,-0.5312457352964884,-0.5893076290844402,0.0,1.0,6.204994033257098,6.204997916227206,0.010065852069382444,0.010066707569279793,0.0,-0.0006572161280512334,-0.00019233845198629793,0.0
1626092297.1238399,7.48394556364188e-06,-3.351510185765061e-07,5.64,4.25,0.012646040879189968,0.9394384026527405,-55.24390411376953,-0.0234375,0.01171875,0.05907217593097007,0.14060688275836064,0.11872957725136493,0.16378540099380415,-0.3186098431900058,-0.4353619108652688,0.0,1.0,6.206274336174217,6.206278638176407,0.010024364084604644,0.010025069808990044,0.0,-0.0014513551905099504,-0.0007847366370919265,0.0
1626092297.1838398,7.22782236314317e-06,-3.390061995425368e-07,5.6,4.22,0.0013197058578953147,0.049038954079151154,-23.90243911743164,0.04638671875,0.095703125,0.02696978342744545,0.15169595026735933,0.06927170235510734,0.19099923449232825,-0.04511765823580664,-0.23762644680183798,0.0,0.0,6.207495128584734,6.2074997639013345,0.009598258102350942,0.009598768502764499,0.0,-0.001866012737176489,-0.0013954574275220496,0.0
1626092297.18584,7.040972893693741e-06,-3.417185548994155e-07,5.59,4.2,2.6164872224399005e-07,-2.433941745039192e-06,1.2195122241973877,0.0048828125,0.00244140625,0.015032169800146579,0.04445194136376194,0.030116316322291743,0.10666833359611894,-0.0045752254652507325,-0.053759778454144765,0.0,0.0,6.20886254704822,6.208867339273632,0.00966261558543901,0.00966292561204024,0.0,-0.0015362039716166748,-0.0016868152696351048,0.0
1626092297.24384,6.839713881242058e-06,-3.443057861425541e-07,5.57,4.19,2.600629898097395e-07,-2.419190650471137e-06,1.2804877758026123,-0.001953125,0.00439453125,0.008481512849353013,0.012691045228717161,0.01093009504257088,0.026303644228001286,-0.005024380379493509,-0.022855471077088144,0.0,0.0,6.2096615742708,6.2096663999759345,0.00938200538070396,0.00938219543877607,0.0,-0.0012130263057313201,-0.0015625233401111345,0.0
1626092297.30384,6.627388699553684e-06,-3.466118096428046e-07,5.59,4.21,0.009960154071450233,-0.5274906158447266,31.58536720275879,0.00146484375,-0.1962890625,0.005180324258811178,-0.1726011166645311,-0.0003560763307255855,-0.09834198139392672,-0.044458426441562025,-0.03272789432937817,0.0,0.0,6.210550333456675,6.21055516735973,0.010430287695229605,0.010430414079703179,0.0,-0.0009574789762679911,-0.0013719644144750947,0.0
1626092297.3638399,6.40899538536041e-06,-3.485644204185171e-07,5.59,4.23,2.1865682811039733e-06,-2.0340168703114614e-05,1.2804877758026123,0.0,0.01806640625,0.0039150263720456125,-0.11667879781349401,-0.0066059170005556165,-0.13626650041586094,-0.1303005425259056,-0.10035808947085481,0.0,0.0,6.211798443302806,6.211803271653633,0.010278501322810578,0.01027856449787681,0.0,-0.0007158280094960574,-0.0010663493779020517,0.0
1626092297.4238398,6.188445352636112e-06,-3.5012667052045073e-07,5.59,4.23,2.17331603380444e-06,-2.0216893972246908e-05,1.2195122241973877,0.00341796875,-0.0048828125,0.0022815792851221413,-0.019821412981487086,-0.008742920689902263,-0.042903856053215395,-0.12826571107989135,-0.12580443861911314,0.0,0.0,6.2126672604306625,6.212672089766144,0.010193421895070241,0.010193456260188045,0.0,-0.0005369176691419774,-0.0008246084761451639,0.0
1626092297.48384,5.968759095133847e-06,-3.5126695430059157e-07,5.61,4.25,2.17331603380444e-06,-2.0216893972246908e-05,1.2804877758026123,-0.00732421875,0.0107421875,0.001291710905168148,-0.005323866998911564,-0.008825126118735987,-0.012685916040836215,-0.12745210263974444,-0.12914441690160627,0.0,0.0,6.213204415604102,6.2132092480425545,0.009577866178345065,0.009577886683684294,0.0,-0.00039009912017028906,-0.0006492561070820414,0.0
1626092297.49784,5.799942535530297e-06,-3.5155056730205453e-07,5.61,4.25,2.17331603380444e-06,-2.0216893972246908e-05,1.3414634466171265,-0.00732421875,0.00830078125,0.0007301213090176176,-0.0004890734666723868,-0.009024122411604616,-0.0014536023110328117,-0.12718782363279615,-0.129464460179869,0.0,0.0,6.214168633708625,6.214173471763634,0.009585405246386347,0.009585415056554789,0.0,-0.0002703678712310445,-0.00042093112906731964,0.0
1626092297.5818398,5.602225520855006e-06,-3.5056909942046367e-07,5.61,4.23,2.1999826458340976e-06,-2.0464955014176667e-05,1.2804877758026123,0.0068359375,0.00927734375,0.00041198295227123374,0.0004017690540199177,-0.008373683836955893,0.00030552152522716,-0.12713239369956517,-0.12881103741326547,0.0,0.0,6.214912539343413,6.214917381688463,0.009355728179534614,0.00935573410957661,0.0,-0.00017420035209175417,-0.0002704034039651375,0.0
1626092297.6038399,5.434264309878631e-06,-3.5104730127863034e-07,5.59,4.2,2.1865682811039733e-06,-2.0340168703114614e-05,1.402438998222351,-0.00732421875,0.01708984375,0.00023251193284359517,0.0007750264674457731,-0.0085921146916403,0.0008316042045617569,-0.12711151775670856,-0.1282809216059191,0.0,0.0,6.215790127495167,6.215794972633715,0.01041781114239181,0.010417816139683858,0.0,-9.783176000417397e-05,-0.00015976463646930842,0.0
1626092297.6638398,5.259693385483224e-06,-3.5112887441490494e-07,5.57,4.17,2.1999826458340976e-06,-2.0464955014176667e-05,1.3414634466171265,-0.0029296875,0.005859375,0.00011358702693210811,-0.05317074126165326,-0.007385844351998075,-0.017202893486232215,-0.12852886457424528,-0.1289849449883963,0.0,-1.0,6.216757802570241,6.216762651754429,0.010283953212119917,0.010283957817079461,0.0,-2.556444256733628e-05,-4.508373655331813e-05,0.0
1626092297.72384,5.082052504896076e-06,-3.508041382587695e-07,5.57,4.17,0.008195694535970688,-0.5477087497711182,42.8658561706543,-0.04736328125,-0.0830078125,0.001315964853728411,-0.11145629277839703,-0.00657346064895705,-0.08483944106699372,-0.19021022395318424,-0.1430332162292086,0.0,0.0,6.2173610318661,6.21736588292888,0.010310819173726626,0.010310823791348327,0.0,-1.401921204846073e-05,8.856373862422198e-06,0.0
1626092297.78384,4.904106928062816e-06,-3.500707766705532e-07,5.58,4.18,1.98475891011185e-06,-1.84628734132275e-05,1.7682926654815674,0.0087890625,-0.00830078125,0.0015258426349121458,-0.09094957497810786,-0.004438290478146597,-0.111393389909221,-0.26475110591200846,-0.19410535223394057,0.0,0.0,6.218165157775943,6.2181700111149585,0.009578049190824167,0.00957805392310911,0.0,8.846046167344924e-06,3.090115114129482e-05,0.0
1626092297.78984,4.772180754597279e-06,-3.493247339125873e-07,5.58,4.17,0.007792519871145487,0.5150774121284485,-24.7560977935791,-0.0205078125,-0.01611328125,0.0004910029005107505,0.11791079047659608,-0.003495318618874256,0.06436889717546337,-0.2361260340866187,-0.2232315551770472,0.0,1.0,6.2192248820052,6.219229736989946,0.009586309867540926,0.009586314721968834,0.0,3.2471977554629876e-05,6.873354960754056e-05,0.0
1626092297.84384,4.634301843001316e-06,-3.484273913638164e-07,5.58,4.16,0.002106597414240241,-0.016179174184799194,-4.817073345184326,0.0458984375,0.03076171875,-0.0011819546934623683,0.15589461142148753,-0.0034943269000377608,0.14731375680097974,-0.1030389191039571,-0.1842004919454381,0.0,0.0,6.219844052299517,6.219848908318269,0.00885475652889802,0.00885476119041288,0.0,-5.032384878168261e-06,6.490456962339926e-05,0.0
1626092297.9038398,4.489309888072683e-06,-3.471213193001257e-07,5.57,4.16,0.007527664769440889,-0.4805530607700348,1.8902438879013062,0.02099609375,0.3720703125,-0.000782972384259159,-0.02940148923404817,-0.003700880966928586,0.016513497972997986,-0.08405763093334587,-0.11321879764718891,0.0,-1.0,6.221090341202923,6.221095198392061,0.008947736847309744,0.008947741254072463,0.0,3.219948935387284e-05,6.765574591427599e-05,0.0
1626092297.96384,4.340533862437746e-06,-3.4541845224132946e-07,5.56,4.16,0.005168577190488577,-0.28037312626838684,26.463415145874023,-0.01953125,-0.0634765625,0.0009331134228050897,-0.10406027656286759,-0.003272638334348887,-0.08945364959877301,-0.17664453697209787,-0.13466570683118323,0.0,0.0,6.2220000325620655,6.222004890371425,0.010184271807156605,0.01018427616416089,0.0,6.249381043721201e-06,7.135495561051588e-05,0.0
1626092298.02384,4.1905661353639834e-06,-3.43346822730221e-07,5.58,4.19,2.0976276573492214e-06,1.9512814105837606e-05,1.2804877758026123,-0.0048828125,0.00146484375,0.0007797191224522467,-0.03053564880473267,-0.002102224658237103,-0.06547481224219887,-0.2246289519497813,-0.18475762927235484,0.0,0.0,6.222915667550271,6.222920526057561,0.01033959602338124,0.010339599945214684,0.0,2.598960303113741e-05,5.8824718558279086e-05,0.0
1626092298.08384,4.041379677562325e-06,-3.409315872292345e-07,5.59,4.19,0.0034874393604695797,0.03244129568338394,-0.18292683362960815,-0.00537109375,-0.0634765625,0.045169248105744665,-0.00943402265121222,0.008394430005636949,-0.02265779909206037,-0.2240722293883956,-0.2060877778453345,0.5,0.0,6.223619116789642,6.223623975765978,0.009785820901416106,0.00978582435099054,0.0,3.839318102673827e-05,6.229647147392072e-05,0.0
1626092298.1438398,3.818788919386347e-06,-3.3701333028590743e-07,5.6,4.14,0.5331578850746155,0.0002706606755964458,2.195122003555298,-0.02587890625,0.1279296875,0.14642267089999372,-0.008548762576064028,0.09722257726388833,0.003878743362545152,-0.21848130447951397,-0.21110605635193747,0.5,0.0,6.22532228835168,6.2253272313186,0.010310192047235224,0.010310258823883029,0.0,-4.74740756491658e-05,7.057163118035661e-05,0.0
1626092298.20384,3.6978810511612143e-06,-3.3441563312740444e-07,5.59,4.1,0.5035576820373535,0.016610363498330116,3.5975611209869385,0.0087890625,-0.11962890625,0.21011040996901387,-0.005943652802320516,0.15281032959937346,-0.007087704063141806,-0.22177807989894022,-0.21617319849355202,0.5,0.0,6.226243035561177,6.226248280180464,0.010234488026594131,0.010234648494835593,0.0,-0.0001554184464608094,-2.3239787212252137e-05,0.0
1626092298.26384,3.574270723330783e-06,-3.31448397905503e-07,5.52,3.97,0.405913770198822,-0.01663464866578579,0.8536585569381714,0.0068359375,0.12109375,0.23519935888777954,0.0050807165626845525,0.21008101977793275,0.0051180188073608425,-0.22028356827445958,-0.21843607650356,0.0,0.0,6.227694441799122,6.2277007700621665,0.010082503850516318,0.01008288180087146,0.0,-0.00013007318324176676,-9.912791867346717e-05,0.0
1626092298.32384,3.4500095798903342e-06,-3.2815937029392243e-07,5.5,3.89,0.025364194065332413,0.01717827282845974,2.0731706619262695,-0.09716796875,0.13525390625,0.20990474550177585,-0.0019297178391050624,0.23038366977746055,-0.005043149063437322,-0.22256396574596507,-0.22022934787743173,0.0,0.0,6.228651071007038,6.228658458481004,0.009596552044314324,0.009597084794556485,0.0,-0.00010797994422196787,-0.00011039554534034297,0.0
1626092298.3838398,3.3266375763837114e-06,-3.2458897059946416e-07,5.48,3.83,0.006323528476059437,0.3787119388580322,-17.5,-0.00537109375,-0.041015625,0.13265942145247395,0.1301500495772562,0.20079135167692813,0.07868663484090066,-0.2083932064093061,-0.21286032292384427,0.0,1.0,6.230384803081938,6.230394375514016,0.009552748706792187,0.009553478146511985,0.0,-6.95446408515115e-05,-9.405320572311549e-05,0.0
1626092298.3938398,3.2336600047882783e-06,-3.216889357680131e-07,5.46,3.81,0.010446373373270035,0.9225351214408875,-51.70731735229492,0.03173828125,0.01806640625,0.07173196743049083,0.2087917114173365,0.14340927323780947,0.20149695226081504,-0.07016492643965698,-0.12639151847435576,0.0,1.0,6.232042243727488,6.232053272064231,0.010231219264057886,0.010231923454109676,0.0,-0.00047039311494667516,-0.00022228946018515848,0.0
1626092298.4438398,3.1393825346089624e-06,-3.187246179387889e-07,5.47,3.78,0.007966436445713043,0.8687407374382019,-51.158538818359375,0.03125,-0.0673828125,0.03961219620193916,0.19002484821621599,0.08950517862876857,0.21582627079827943,0.1406346744017866,0.052630676793990104,0.0,0.0,6.233227185485844,6.233238716407282,0.008860844248391186,0.008861367968986176,0.0,-0.0010173991991239645,-0.0006174182840986232,0.0
1626092298.50384,3.040522750016892e-06,-3.1534412934600233e-07,5.5,3.81,5.121065100865962e-07,4.763781362271402e-06,7.865853786468506,-0.0205078125,-0.048828125,0.017957254909330905,0.16448758121153914,0.048282889180953595,0.22034650591177604,0.33765421056915557,0.2620650874231756,0.0,0.0,6.235088746527879,6.235100652866331,0.010402749957991975,0.010403124767426383,0.0,-0.0010515765714376266,-0.0009516355958976577,0.0
1626092298.5818398,2.931336967053619e-06,-3.1095621199325465e-07,5.48,3.76,3.069849583425821e-07,-2.855673983503948e-06,1.2804877758026123,0.00048828125,-0.00048828125,0.010175151025910077,0.11279685111316523,0.023250302571741613,0.14612020379548643,0.3423670693877502,0.33543370559577046,0.0,0.0,6.236244150077396,6.236256112147609,0.010088945619612027,0.010089184490689086,0.0,-0.0007965914910915396,-0.0009787192745420877,0.0
1626092298.6238399,2.8317517082577084e-06,-3.070801691896852e-07,5.48,3.76,0.12484122067689896,-0.049593593925237656,4.390244007110596,0.00537109375,-0.14892578125,0.07435190754563648,-0.0033680333501506605,0.028822144684531457,0.02526925640468725,0.33206207382497643,0.3458744832347717,0.5,0.0,6.237176128483003,6.23718811004021,0.01021465196845805,0.010214798334587842,0.0,-0.0006084353994224789,-0.0008580754365686178,0.0
1626092298.6838398,2.7321911888873937e-06,-3.0293669225793027e-07,5.43,3.76,0.5141923427581787,0.04991314187645912,-0.792682945728302,0.2529296875,-0.0771484375,0.10304582708062072,0.0161114263869024,0.06272433368295682,0.011913831464604369,0.3268204043338117,0.3388489432320481,0.5,0.0,6.23788896422242,6.237901001156878,0.009557080168794904,0.00955718740583684,0.0,-0.0005665571020570514,-0.000737590873623392,0.0
1626092298.68584,2.659873417921225e-06,-2.9989582998803163e-07,5.36,3.71,0.49876025319099426,0.000271821889327839,0.8536585569381714,0.12939453125,0.40771484375,0.1649082167980099,0.016443895465819033,0.10165734071094103,0.02176188955874118,0.33526413658306065,0.3389786970189899,0.5,0.0,6.238465627720166,6.238477755101981,0.008890942088595921,0.008891057829084803,0.0,-0.00023218599921433623,-0.0005729724101336133,0.0
1626092298.74384,2.5825332974503634e-06,-2.964451274431954e-07,5.29,3.66,0.5070967674255371,0.050134237855672836,1.8902438879013062,0.458984375,-0.04931640625,0.21367715172557855,0.015516097733305223,0.16811957608223083,0.014088819399293129,0.33681734719532563,0.34066345722999275,0.5,0.0,6.239667425670801,6.239679975673338,0.0088605457828827,0.008860777999764277,0.0,-0.0001125728681587288,-0.00029850142346102916,0.0
1626092298.80384,2.501378727193605e-06,-2.925889234028747e-07,5.1,3.52,0.30360206961631775,0.01578216440975666,-0.18292683362960815,-0.08740234375,0.14697265625,0.23763479401328833,0.0075547351096655795,0.2146859208092758,0.008593352313273009,0.3380458748030011,0.34091206774827804,0.0,0.0,6.241291428819083,6.2413050859076415,0.010396954824498915,0.010397422562677871,0.0,-3.58089864904171e-05,-0.00014159437205708153,0.0
1626092298.8638399,0.0019652670060229267,-2.8839563324543045e-07,4.99,3.44,1.0675105954760511e-07,-9.930331543728244e-07,1.1585365533828735,0.0068359375,0.0029296875,0.19076596240757296,0.003215274504696257,0.2228419905307036,0.004318400983878408,0.33798944847596935,0.3399009893934618,0.0,0.0,6.242633498125581,6.242648553629026,0.01008197182830018,0.010082639270208664,0.0,4.742769406870996e-06,-4.200909050443378e-05,0.0
1626092298.9238398,0.005438888449856859,-2.5779865993531384e-07,4.95,3.4,0.006263432092964649,-0.3792709708213806,15.42682933807373,-0.00244140625,0.03466796875,0.11243360845512965,-0.13001929245785568,0.1829981089819813,-0.07084746274468323,0.32355597087496224,0.3301924020777272,0.0,-1.0,6.243986347163239,6.2440028156301555,0.010209238232934407,0.010209998449456258,0.0,3.4119060780920834e-05,2.738211818839778e-05,0.0
1626092298.98384,0.010145648219367394,-5.929506025185966e-07,4.97,3.45,0.006296650506556034,-0.8958422541618347,50.73170852661133,0.06787109375,0.03662109375,0.058227499918694935,-0.14646222706621548,0.12714056177588232,-0.14523355863825635,0.1495986224961472,0.2621248802823198,0.0,-1.0,6.245109542420537,6.245126720831191,0.009753334858011492,0.009754000666809436,0.0,0.0003848634506140322,0.00014543690746520824,0.0
1626092298.99784,0.013975983709683703,-8.326543082501169e-07,5.0,3.51,0.017493493854999542,-1.0117954015731812,60.4878044128418,-0.1103515625,-0.0751953125,0.0349075514622331,-0.147215088043666,0.07126181995063997,-0.18177427493131598,-0.06874754015657844,0.06295577022054583,0.0,-1.0,6.24660480893157,6.246622520746482,0.009799561223537019,0.009800032544329478,0.0,0.000623922114444365,0.00043400668482773,0.0
1626092299.0818398,0.01982865685499931,-3.0935513076297914e-06,5.02,3.51,0.008812534622848034,-0.9452022910118103,56.09756088256836,-0.04248046875,-0.08203125,0.021998958567136035,-0.15860664215872589,0.04572398082388752,-0.21780336880781448,-0.3096050813361803,-0.11495307130598974,0.0,-1.0,6.247485826220195,6.247503684260264,0.008927278861889694,0.008927616544188863,0.0,0.0005505952833961757,0.0005371600014195274,0.0
1626092299.1038399,0.024665150439146473,-6.78537417639175e-06,5.04,3.55,0.001451130141504109,0.049880679696798325,-2.317073106765747,0.01708984375,0.04052734375,0.014636643340672254,-0.1753517044967033,0.021815936561994192,-0.2574326299742911,-0.5176004750655462,-0.3851354512072871,0.0,-1.0,6.249348498354998,6.249366484102481,0.010373197749389742,0.010373421407532708,0.0,0.00047763548207186183,0.0005684156840844359,0.0
1626092299.1638398,0.029103085034730518,-1.0361675516430986e-05,5.06,3.56,1.4000563908211916e-07,1.30237810935796e-06,1.402438998222351,-0.0087890625,0.00048828125,0.007354606786676436,-0.04357953389477075,0.008477876732748232,-0.15354634968276915,-0.5436808040828371,-0.5123156442974474,0.0,-1.0,6.250621295678142,6.250639292692706,0.01008487900178807,0.010085015622321437,0.0,0.00038285880184068356,0.0005371936307872391,0.0
1626092299.22384,0.03360938599039781,-1.1575550460973739e-05,5.05,3.6,0.008080017752945423,-0.5443776249885559,9.02439022064209,0.05029296875,-0.005859375,0.004950221980337061,-0.18081380713199074,7.81438321890604e-05,-0.12827235603308257,-0.5512994922003217,-0.5483596217960561,0.0,-1.0,6.251502644902587,6.251520643355594,0.00993658599747092,0.009936665949050889,0.0,0.0003238250624393324,0.00047067753606886954,0.0
1626092299.28384,0.03852419264791259,-9.759511656794731e-06,5.14,3.61,0.0025365527253597975,0.049326736479997635,-2.2560975551605225,-0.01904296875,-0.0244140625,0.004855883892524512,-0.19845771209675594,-0.0028574697711175115,-0.19169354563132812,-0.6825386044474998,-0.5992172436057827,0.0,0.0,6.252243779869623,6.252261778567892,0.009398797459455406,0.009398847493056297,0.0,0.00020477974708718689,0.00039378194235688534,0.0
1626092299.28984,0.04202841070624126,-8.389054571726995e-06,5.12,3.63,0.0017561984714120626,0.016336729750037193,0.24390244483947754,0.00439453125,0.001953125,0.0031479967318499454,-0.10286073965150049,-0.004449560319126029,-0.1705663811681051,-0.7127328284275358,-0.6882332987119343,0.0,0.0,6.253436885836574,6.25345488583569,0.008954427122394606,0.008954454146829665,0.0,0.0001736031931054517,0.00029250706456297667,0.0
1626092299.34384,0.04636962962335477,-4.562882233944506e-06,5.05,3.62,3.040872513793147e-07,-2.828718379532802e-06,1.2804877758026123,-0.005859375,0.01611328125,0.0020168260801567404,-0.015263734882501013,-0.005394742020269387,-0.07209566624314856,-0.7045131611178225,-0.7124716866804914,0.0,0.0,6.2544580959100395,6.2544760969141615,0.00878535546200479,0.008785370022723575,0.0,0.00013620152113168524,0.00022225403176282505,0.0
1626092299.4038398,0.05137427131948315,1.4200548675086588e-06,5.06,3.62,0.0025376195553690195,-0.04931681230664253,1.2804877758026123,0.0009765625,0.00927734375,0.000995972413519017,-0.10317820125680971,-0.0072355618310443156,-0.026541065693138854,-0.7067348253005908,-0.7141330096961161,0.0,-1.0,6.255580325971727,6.255598326188105,0.010305414619192692,0.010305422932449328,0.0,0.00010002288060021446,0.00016583933021240642,0.0
1626092299.46384,0.056736394415082686,9.240426262890224e-06,5.0,3.63,0.008389941416680813,-0.9067100882530212,51.89024353027344,0.0087890625,-0.02587890625,0.001982432688561602,-0.2407360125762679,-0.006547566412390607,-0.19837556829898745,-0.7700369673953165,-0.7526060465451223,0.0,-1.0,6.256704694685017,6.256722695405105,0.0100950857275647,0.010095090321754562,0.0,5.1292112798980954e-05,0.00010816909272531664,0.0
1626092299.52384,0.06216833411937786,1.7307287327215164e-05,4.99,3.64,4.857075737163541e-07,4.518210062087746e-06,38.59756088256836,-0.0615234375,-0.08935546875,0.0028491521277103195,0.021511912516334008,-0.005816431839458047,-0.15837488379727027,-0.9828332180395881,-0.8508818364366881,0.0,1.0,6.258112063538848,6.25813006342534,0.011200480193094177,0.011200484072041546,0.0,-3.0232647701664815e-05,4.393937359638016e-05,0.0
1626092299.58384,0.06737298792601946,2.45725648719482e-05,4.98,3.61,0.010655411519110203,0.5939456820487976,-28.170732498168945,-0.10546875,0.05908203125,0.00027808283812043983,0.05988985590308852,-0.0042736636658714505,0.0039380920866407335,-0.9286292650256137,-0.9258387632143248,0.0,1.0,6.259223214553415,6.259241215075432,0.010169878232165289,0.010169881674789293,0.0,-5.163015022487137e-05,-1.7061776705962796e-05,0.0
1626092299.657037,0.07464190267281755,3.58391782872563e-05,5.0,3.61,0.002164421370252967,-0.01662847027182579,1.9512195587158203,0.00146484375,-0.00732421875,-0.0014006719499570967,0.05241461776598665,-0.0049441286332640695,0.13606205163840387,-0.6624603838762675,-0.7777229792891703,0.0,0.0,6.2606063562113645,6.260624356920494,0.008875378864680868,0.008875382193886845,0.0,-0.00012415102309995866,-0.00011319479154626488,0.0
1626092299.717037,0.07789764476236606,4.057216361536018e-05,4.98,3.61,3.3206347893610655e-07,-3.088962330366485e-06,1.2195122241973877,-0.01220703125,0.00439453125,-0.0007995361876461863,0.015593849846842743,-0.004649560419924678,0.04769105747956929,-0.664216865725973,-0.7142870098869628,0.0,0.0,6.261534041960776,6.2615520423971684,0.008828357991199217,0.00882836134010955,0.0,-0.00010078300882003299,-0.0001265417241637782,0.0
1626092299.7770371,0.08081884202836956,4.376833883489751e-05,5.09,3.62,3.3005093769133964e-07,-3.070241291425191e-06,1.2804877758026123,-0.00146484375,0.0126953125,-0.00043253653288706165,0.0034310010296001066,-0.004185336915095345,0.008573440923340935,-0.6647311376814777,-0.6894645729568997,0.0,0.0,6.262757680841527,6.262775680800454,0.010055134807935323,0.0100551382938033,0.0,-8.462100520403722e-05,-0.00011994538071786434,0.0
1626092299.837037,0.08340902381546478,4.505425108325983e-05,5.08,3.64,0.005007518455386162,-0.6137480139732361,1.4634146690368652,-0.01416015625,0.0224609375,5.976790423487216e-05,-0.098529548733115,-0.0036622012729978335,-0.02773726436922595,-0.6806924339921087,-0.6853454281786552,0.0,-1.0,6.2634520649181775,6.263470064919157,0.01034899575065211,0.010348999084155031,0.0,-6.759282732010747e-05,-0.0001075792289244861,0.0
1626092299.897037,0.08564156700126473,4.539420609808639e-05,5.1,3.63,0.011973652988672256,-0.8794147372245789,49.45122146606445,-0.0244140625,0.07373046875,0.001960755189255111,-0.0660476003801877,-0.0021011640695285023,-0.10873077256283124,-0.800793348274771,-0.7291166728718732,0.0,1.0,6.264487072459877,6.264505072664477,0.010223761749837567,0.010223764699105103,0.0,-0.00013047677494224764,-0.00010879647763446969,0.0
1626092299.907037,0.08702651154726312,4.5640786618454507e-05,5.02,3.63,0.011235259473323822,0.4747319221496582,-4.207317352294922,-0.02734375,-0.00732421875,0.0016124388858364497,0.09472470933868621,-0.0008672523264921032,-0.009861983095496657,-0.8656422400118797,-0.771565170113074,0.0,1.0,6.265252496760789,6.265270496977045,0.010441412359340556,0.010441415116499915,0.0,-0.00011203786962937773,-0.00013375090401382758,0.0
1626092299.9910371,0.08761298536510406,4.437153537896639e-05,5.0,3.61,0.006319686304777861,0.8898083567619324,-46.64634323120117,-0.08056640625,-0.06591796875,-0.0006196954272607018,0.07081345028652472,-0.000726563678926088,0.04048186108022274,-0.7472488456219243,-0.7847949812423884,0.0,1.0,6.265824426281166,6.265842426784538,0.00910446039441564,0.009104462700325824,0.0,-0.00014001207807367872,-0.0001318599308846823,0.0
1626092300.0170372,0.08869341618077067,4.172189806701285e-05,5.08,3.61,0.0166665967553854,0.9394031763076782,-52.74390411376953,-0.0810546875,0.16162109375,-0.0027467883834185565,0.09843883588748811,-0.001852980685055989,0.11556344219474035,-0.5380475462895629,-0.7156503888382814,0.0,1.0,6.2666179464338105,6.266635946977419,0.008814332078090526,0.008814334019780441,0.0,-0.0002996878090285721,-0.00017796351162226574,0.0
1626092300.077037,0.08895735811638678,3.82202791708867e-05,5.11,3.58,0.0075144339352846146,0.659324049949646,-53.414634704589844,-0.0615234375,-0.029296875,-0.004218531936768763,0.026616792512285103,-0.004118718398958538,0.1906925003773536,-0.3133155844713703,-0.48977463431137963,0.0,-1.0,6.268261445457199,6.2682794459506805,0.010056107612039289,0.010056109312375196,0.0,-0.00044999650227447844,-0.00034530643437436756,0.0
1626092300.137037,0.08803434631646896,3.4463195027135844e-05,5.1,3.55,0.013470553793013096,-0.494233101606369,16.40243911743164,-0.0009765625,-0.00634765625,-0.002480445813810449,-0.07902695928602604,-0.004513766785184928,0.02054863309087112,-0.25449980231410907,-0.33310009650408123,0.0,-1.0,6.2694013043722725,6.269419305461317,0.0102273395150196,0.0102273410056233,0.0,-0.0003408428221918927,-0.0003891068206170182,0.0
1626092300.197037,0.08559111387776576,3.078199955014588e-05,5.09,3.56,0.006669383961707354,-0.9287567734718323,52.0121955871582,-0.0087890625,0.0986328125,0.0005707769945138644,-0.08133525343886319,-0.003413742093898535,-0.04662823000157138,-0.4106339156051772,-0.32812509322896893,0.0,-1.0,6.26991415634503,6.269932157931084,0.009922452896146747,0.00992245418756131,0.0,-0.0003775095207988838,-0.00038622510472932593,0.0
1626092300.199037,0.08378421911809827,2.804983472105841e-05,5.04,3.59,0.012194949202239513,-0.7300098538398743,54.8780517578125,-0.02880859375,-0.03857421875,0.002882123783266369,-0.1031072586214068,-0.0005065230252215318,-0.14138950356354102,-0.6297243607285767,-0.45570760947851874,0.0,0.0,6.270937521078638,6.270955522967751,0.009762098183444035,0.009762099167403162,0.0,-0.0005035371214045062,-0.00044387928702309913,0.0
1626092300.2570372,0.08035267903550954,2.5183093991040336e-05,5.01,3.6,0.00036816700594499707,0.0325159952044487,0.0,0.005859375,0.01171875,0.003578174858175279,-0.08684826069349237,0.001348649212711539,-0.1779590886531316,-0.7308987051233738,-0.5956777130234389,0.0,0.0,6.27168865876462,6.271706660703094,0.008915061367587948,0.008915062177148101,0.0,-0.0005085393729316723,-0.0004971289308951765,0.0
1626092300.317037,0.07728643243177721,2.2000045127079607e-05,4.97,3.62,2.972515176224988e-07,2.7651306027109968e-06,1.2195122241973877,-0.0078125,0.009765625,0.0020054086899679783,0.002320724898485129,0.0019460463251973813,-0.018778200182151688,-0.7349690259003062,-0.6824760543867713,0.0,0.0,6.272818913640399,6.272836915542717,0.00890726914755878,0.008907269799522057,0.0,-0.0003716116473486486,-0.00046013520883475794,0.0
1626092300.377037,0.07443000815144427,1.879345444859335e-05,5.03,3.61,0.008732421323657036,0.08123181760311127,-3.47560977935791,-0.00244140625,-0.03466796875,0.04621299006031999,0.0016468090590749046,0.012048521745184048,-0.003430723656201789,-0.7337225887901365,-0.6998963687124803,0.5,0.0,6.273687629976837,6.273705631767952,0.010173054629021292,0.010173055321713366,0.0,-0.0002867238478736695,-0.0004024421725216342,0.0
1626092300.437037,0.07175531596512899,1.6073336844716515e-05,5.09,3.6,0.4568956196308136,-0.016080081462860107,2.804877996444702,0.24169921875,-0.2822265625,0.10329326568486903,0.0010969836535740934,0.05864448435340831,0.0053137747373197455,-0.7232468335000802,-0.7055737121887518,0.5,0.0,6.274511469609955,6.2745294730764725,0.010316809686016563,0.010316823370196784,0.0,-0.00013063817099268491,-0.0002916426373050522,0.0
1626092300.4970372,0.06941573237010099,1.3551644172465352e-05,5.18,3.54,0.5153264999389648,0.01579912379384041,3.353658676147461,-0.02978515625,0.11181640625,0.16480247304869544,-0.018410981826293995,0.10885353480867746,-0.015368084487774996,-0.7311719421974847,-0.714478317062812,0.5,0.0,6.275267148123623,6.27528516694816,0.009810273064638303,0.00981033792873875,0.0,-0.00030448085985311247,-0.0002528486450232723,0.0
1626092300.595037,0.06340634787894317,9.821568381479423e-06,5.06,3.32,0.44727256894111633,-0.03267449885606766,-0.6097561120986938,-0.02783203125,0.14794921875,0.23619914108178913,-0.0010918342315691361,0.21297064679936406,-0.0025098266252087473,-0.732534281991987,-0.7287626070882169,0.0,0.0,6.2773877406974075,6.277405926680873,0.009109751997837208,0.009110118874518616,0.0,-0.00021665448376621122,-0.0002711022545782153,0.0
1626092300.617037,0.05951494622483768,8.428137874702892e-06,5.1,3.25,0.07054503262042999,0.0005323634832166135,1.7073171138763428,-0.03857421875,0.12939453125,0.2216175449517267,0.0021196201049558864,0.23538975773568338,0.0028135160487601624,-0.7338649761360483,-0.7313002035389247,0.0,0.0,6.278864730049211,6.27888312199152,0.01023957096428758,0.010240168503995197,0.0,-0.00020366794419865778,-0.0002397608842200443,0.0
1626092300.677037,0.055522127077151734,6.856680678579605e-06,5.13,3.18,0.0042307195253670216,0.5446277260780334,-19.817073822021484,-0.0576171875,0.00048828125,0.1247786891648141,0.17363897728597083,0.20281559203766367,0.10621972724609194,-0.7063897553431079,-0.7152047369335621,0.0,1.0,6.280624247938473,6.280642902473628,0.010366539188392603,0.010367323345823534,0.0,-0.00015089387219199596,-0.0001868401132379368,0.0
1626092300.7370372,0.052104137947964105,4.564502113138983e-06,5.16,3.15,0.010962956584990025,0.9563003778457642,-53.90243911743164,-0.123046875,0.02783203125,0.06950334302963652,0.20697207765068662,0.14472479693582221,0.20815295207319356,-0.5532675077959284,-0.6176922615988272,0.0,1.0,6.282126769127258,6.2821456773256985,0.01006897209612445,0.01006969442958181,0.0,-0.0005997265215922894,-0.0002897732398515532,0.0
1626092300.7970371,0.049629751629468935,2.022232446483212e-06,5.04,3.11,0.008330249227583408,0.9072653651237488,-52.19512176513672,-0.0234375,0.025390625,0.03674978843600434,0.18564980893245397,0.09082305101115079,0.21386441494554856,-0.33442193204025217,-0.44547443353351307,0.0,1.0,6.283571554930322,6.28359075399187,0.009837210048617649,0.009837764890045888,0.0,-0.0011492627282918297,-0.0006801647328003034,0.0
1626092300.8030372,0.047724091305353475,1.8277438564764622e-07,5.03,3.11,0.008740154094994068,0.940214991569519,-49.93902587890625,-0.0791015625,-0.0498046875,0.015427309410843219,0.18046146378501765,0.05034111253706414,0.22476162406336625,-0.06373037816942799,-0.23867614257531788,0.0,1.0,6.284933366338883,6.2849527753628935,0.009569759418539615,0.009570138913799361,0.0,-0.001306328445492525,-0.0010537719654942629,0.0
1626092300.857037,0.04674613858822132,-2.4037330217222893e-06,5.0,3.05,0.009739167988300323,0.8573965430259705,-27.865854263305664,-0.0654296875,-0.01806640625,0.00669936947290695,0.3003187399115437,0.0184433403588308,0.277251856488158,0.1410539089046212,0.03217542875310634,0.0,1.0,6.286935691436976,6.286955229818725,0.010251250927978814,0.010251474985681358,0.0,-0.0012526231281603788,-0.0012651678509986728,0.0
1626092300.917037,0.04650643540365324,-5.294366651054261e-06,4.99,3.02,0.011277287267148495,0.9895362854003906,-55.97561264038086,0.00341796875,0.0283203125,0.0012357757791349598,0.36456418948763775,0.007238622664247129,0.3627704949835919,0.34461982948502035,0.215596394272468,0.0,1.0,6.288053747756851,6.288073295608121,0.008843609490572652,0.008843752235962295,0.0,-0.0011721395091273338,-0.0012648827652298358,0.0
1626092300.9910371,0.04652477899704121,-7.592655294931125e-06,4.99,2.99,0.003989123273640871,0.688896119594574,-52.74390411376953,-0.07373046875,0.1064453125,-0.0019230443576898246,0.32345579365427873,-0.004852809852161489,0.39095992099732463,0.5876171628935501,0.5066312806790008,0.0,0.0,6.291216521583862,6.291236088145289,0.010383549297584511,0.01038363347437312,0.0,-0.0010938922268019754,-0.0012491868520619043,0.0
1626092301.0370371,0.04725446177116955,-8.975725987793141e-06,5.0,2.95,8.977495014050874e-08,-8.351158271580061e-07,1.2195122241973877,-0.0078125,0.0078125,-0.0014841593427226125,0.20490622848335915,-0.009919976792970214,0.32139328311604964,0.6792622624451642,0.6859380818676217,0.0,0.0,6.29423449669952,6.294254064560878,0.010297789061670547,0.010297829163997126,0.0,-0.0007836381539584522,-0.001073359295577287,0.0
1626092301.097037,0.0480299983984146,-9.611253111820621e-06,4.98,2.95,8.977495014050874e-08,-8.351158271580061e-07,1.2804877758026123,-0.00244140625,0.015625,-0.0008123808998270256,0.12320565696326559,-0.010111630914097067,0.13269174084983618,0.6756097278840172,0.6937072574124922,0.0,1.0,6.295347844823665,6.295367412723224,0.009847329907469676,0.00984735335739964,0.0,-0.000593232479231477,-0.0009120360479960192,0.0
1626092301.157037,0.04890718546487076,-9.738536222605158e-06,4.93,3.17,1.1780115301007754e-06,1.0958247003145516e-05,1.5243902206420898,-0.00244140625,0.03369140625,-0.001020025269579176,0.1429067811851696,-0.008456872982986249,0.15733068887128676,0.8012638326577247,0.7769024891410827,0.0,0.0,6.2973989461061715,6.297418515740551,0.009179856113407488,0.009179861084118085,0.0,-0.00035298166897927767,-0.0005124075417644114,0.0
1626092301.217037,0.048578215554027956,-9.481201590234131e-06,4.92,3.29,1.1780115301007754e-06,1.0958247003145516e-05,1.3414634466171265,-0.0068359375,0.01171875,-0.000566156958427156,0.02814580720142393,-0.008346559039875093,0.08528529594181847,0.8025726738901598,0.8072250225274585,0.0,0.0,6.298563068469197,6.2985826369471205,0.010343973636155928,0.010343976428245612,0.0,-0.000230396147078669,-0.00036725656934578205,0.0
1626092301.2770371,0.04717061225622935,-8.620595787621253e-06,4.93,3.29,0.012886704877018929,-0.09889139980077744,9.634146690368652,-0.029296875,-0.091796875,0.04480273120662764,0.008852037372972322,0.003724961725178781,0.014826482121626908,0.7986465335018329,0.8088419781497415,0.5,0.0,6.299557079131858,6.2995766476539785,0.010336245743867684,0.010336247538338615,0.0,-0.00012131145771135258,-0.00019939285895547823,0.0
1626092301.337037,0.04441494438403906,-7.625219831289442e-06,4.93,3.17,0.46214690804481506,0.032166577875614166,-0.6097561120986938,0.12890625,-0.02880859375,0.10376186642035576,0.01511966332807937,0.05214042473186845,0.004446317583055747,0.7871279689546483,0.8026007334930172,0.5,0.0,6.300310365158195,6.30032993441133,0.01006728299194818,0.010067297040200164,0.0,-0.00016954060833483114,-0.00013041390545861953,0.0
1626092301.397037,0.040267085420885126,-9.681422101161116e-06,4.87,3.05,0.5224218964576721,0.016715481877326965,-2.7439024448394775,-0.03515625,0.02392578125,0.1642641010460148,0.014860615837481656,0.09166813133504777,0.015577107226556607,0.7946365722540653,0.8022536244682978,0.5,0.0,6.300990827342752,6.301010395363619,0.010113278105248992,0.010113328000032095,0.0,7.625077891243363e-05,-6.576624650953984e-05,0.0
1626092301.407037,0.037066176536930305,-1.1429612892648088e-05,4.79,3.03,0.49833178520202637,0.0322268009185791,3.47560977935791,0.416015625,-0.2158203125,0.20856024751279983,0.0170943608987041,0.15097245380208382,0.019371720024604938,0.7986119986755251,0.8028929521421099,0.5,0.0,6.301776069008208,6.301795629218161,0.009122099402258431,0.00912224666449809,0.0,0.00021189385370887166,9.494328973342551e-05,0.0
1626092301.4910371,0.03190960512039803,-1.9230941819979153e-05,4.65,2.99,0.4732406735420227,0.016262788325548172,-0.3658536672592163,0.0888671875,-0.009765625,0.2358997387736747,0.005622292120629442,0.20914733802959476,0.007572791225341095,0.7997115079160886,0.8030115432735778,0.5,0.0,6.303203745808112,6.303223265457298,0.009174284677929561,0.009174654052128525,0.0,0.00023250674766860623,0.00023209757746669099,0.0
1626092301.5170372,0.02657063584671824,-3.5597283086259476e-05,4.57,2.98,0.09493615478277206,0.049300454556941986,2.1341464519500732,-0.05126953125,0.21630859375,0.2198765871859336,0.0178301914964858,0.23367501411616967,0.014437152495351813,0.8014786391509869,0.8028492325173654,0.0,0.0,6.304792704758471,6.304812147879649,0.00967320404575879,0.009673822978224332,0.0,0.00022448925392146483,0.0002740775951838893,0.0
1626092301.595037,0.019874429148034983,-6.698946155662706e-05,4.51,2.93,3.361849678640283e-07,3.1273020795197226e-06,1.3414634466171265,-0.0087890625,-0.00048828125,0.1312676592226859,0.007725283669449361,0.2159181170822696,0.010428521355989442,0.8019815506469794,0.8038305844517748,0.0,0.0,6.306050834671169,6.306070208150581,0.010123650880482296,0.01012441618118289,0.0,0.00021708204889503912,0.0002870248628467968,0.0
1626092301.637037,0.013110391171986414,-0.00011272536840059396,4.5,2.92,3.361849678640283e-07,3.1273020795197226e-06,1.3414634466171265,-0.00244140625,0.0166015625,0.07482508623338704,0.0020027783305916224,0.1608595210681802,0.004440174968744871,0.8017376309889623,0.8034723822463282,0.0,0.0,6.307261075661211,6.307280385244012,0.009781689932251278,0.009782452319280942,0.0,0.00021145298025125668,0.00028680597586821014,0.0
1626092301.697037,0.006010363084833165,-0.0001723312125783154,4.49,2.91,3.361849678640283e-07,3.1273020795197226e-06,1.3414634466171265,-0.00146484375,0.00244140625,0.04232553207735462,0.0012848836149312406,0.09515800013940674,0.0015275750697390932,0.8016795639824847,0.8027585277328609,0.0,0.0,6.308497226488396,6.308516498756014,0.009831985496842926,0.009832566097981681,0.0,0.00019736481800123736,0.00027342982560018457,0.0
1626092301.699037,0.0008576990115645517,-0.00021562776333271445,4.46,2.92,0.02787989005446434,0.03294515609741211,1.3414634466171265,0.0048828125,0.01513671875,-0.015473796939040267,0.0008657654062624732,0.04815032930443712,0.0009918100650152717,0.801667413346306,0.8024898857475203,-0.5,0.0,6.3093560022072115,6.309375265723819,0.009795209042539586,0.009795614070172431,0.0,0.0001826308973015575,0.00025351307459868305,0.0
1626092301.7570372,-0.004786069899080699,-0.00026955777442973174,4.46,2.93,0.2857620120048523,-0.032435934990644455,2.1341464519500732,0.041015625,-0.06201171875,-0.06634909047152879,0.007502403859605984,-0.008313601337309297,0.005012916615799689,0.8036680732824805,0.8032752976680757,0.0,0.0,6.310057520672787,6.310076787183064,0.009925111550596255,0.009925399392812676,0.0,0.00015178246130483582,0.00023186792364395399,0.0
1626092301.817037,-0.010677926315134019,-0.0003308446604150473,4.5,2.91,3.361849678640283e-07,3.1273020795197226e-06,1.3414634466171265,0.01318359375,-0.0087890625,-0.07726187074066149,-0.006153899474425651,-0.06393036803898113,-0.0030837988078855436,0.8012274539350551,0.8029158005666204,0.0,0.0,6.310997924760768,6.311017204170368,0.00967050141816707,0.009670684265037546,0.0,0.00016340665261566466,0.00020649948752971995,0.0
1626092301.877037,-0.01657114230058264,-0.00039478998290082913,4.53,2.9,1.7734830635163235e-06,1.649751720833592e-05,1.2804877758026123,-0.01513671875,0.005859375,-0.04279542396233734,0.00013968676898148074,-0.0707982690982215,-0.0007307542251613028,0.8015973208525476,0.802015589862426,0.0,0.0,6.311984442854748,6.312003727728313,0.01031928796595767,0.010319435800848523,0.0,0.000139254138254592,0.000188090777380621,0.0
1626092301.937037,-0.022278568387978072,-0.0004592224958514709,4.53,2.91,1.7734830635163235e-06,1.649751720833592e-05,1.3414634466171265,-0.00537109375,0.0185546875,-0.024287768720488764,0.0008899346467024743,-0.06086738593314224,0.00035408889706469414,0.801642894953567,0.8019529482084322,0.0,0.0,6.312546651028493,6.312565935767621,0.009888201738872655,0.00988832061948148,0.0,0.0001223813855920756,0.00017083910615670612,0.0
1626092301.9970372,-0.02766027731138082,-0.000520919011363312,4.53,2.96,0.003727140137925744,-0.3299418091773987,19.7560977935791,0.00927734375,0.05908203125,-0.013405064389318556,-0.09213746383753217,-0.04179534602465502,-0.051857842335470916,0.7943288236209585,0.7966070155495867,0.0,-1.0,6.313557091686559,6.31357637406409,0.009853483286407451,0.009853561078630427,0.0,0.00010564295684433941,0.00014402041103115762,0.0
1626092302.095037,-0.03565143402197649,-0.0006136246856519227,4.56,3.03,0.008147898130118847,-0.8780149817466736,49.26829528808594,-0.037109375,-0.04443359375,-0.001262017478722961,-0.16419632894822955,-0.01894006748719642,-0.18842106134643255,0.4599731089303727,0.6284712865033684,0.0,-1.0,6.315574295733856,6.315593582654264,0.00996878566244339,0.00996881936658328,0.0,-0.00018296386680245847,-7.555463410396142e-07,0.0
1626092302.117037,-0.03923812694887589,-0.0006528103687088349,4.55,3.0,0.014907731674611568,-0.9557647109031677,50.79268264770508,0.02001953125,-0.0576171875,0.001470530935328849,-0.15717933639321416,-0.009174642828199934,-0.21683995708561415,0.23909720289729558,0.37558077822187425,0.0,-1.0,6.317072986351814,6.317092279846291,0.009707078042117073,0.009707095917391287,0.0,-0.0003146435348660255,-0.00018693369567494654,0.0
1626092302.16325,-0.042449782756760306,-0.0006853082220287248,4.58,3.03,0.010047388263046741,-0.8847247958183289,55.060977935791016,-0.0849609375,0.009765625,0.004190858145242222,-0.3926267309786091,-0.003709642626689264,-0.3464017299441705,-0.044458273835171654,0.08365728328529336,0.0,-1.0,6.318874423236805,6.318893718898776,0.01033588254989201,0.010335893385003764,0.0,-0.0004958983189696302,-0.00036434496440651163,0.0
1626092302.2232502,-0.04537217314225647,-0.0007060695516739886,4.58,3.03,0.013076821342110634,-0.9789044857025146,56.64634323120117,-0.0615234375,0.0634765625,0.004371600164846245,-0.3909699302757989,-0.0007528201341531813,-0.4100029828974889,-0.21370344310432937,-0.13249335900048856,0.0,-1.0,6.320658819234691,6.320678114801008,0.009906768272290655,0.009906775764870089,0.0,-0.0004882826556566766,-0.000453193528248274,0.0
1626092302.28325,-0.04793201017656159,-0.0007126312605294692,4.66,3.05,0.016729038208723068,-0.944930374622345,58.78049087524414,0.064453125,-0.0009765625,0.004978258921648929,-0.34874938576688314,0.0015265030529343806,-0.4052354733396099,-0.4511945709357492,-0.3877592566140569,0.0,-1.0,6.323632407279936,6.323651702094962,0.010155592034987993,0.010155597386679264,0.0,-0.0005600447965888647,-0.0005318712701814718,0.0
1626092302.2892501,-0.049796405129164605,-0.0007200821976150834,4.58,3.1,0.008781233802437782,-0.944887101650238,55.060977935791016,-0.0654296875,0.00244140625,0.005631020168206952,-0.3342654823067551,0.0032796650358213595,-0.3906468985496706,-0.6745644380818572,-0.6188677639228172,0.0,0.0,6.326015111385881,6.326034406289724,0.009246905002709147,0.009246909171029792,0.0,-0.0006029982612474421,-0.0005965274306019566,0.0
1626092302.34325,-0.0514658537297661,-0.0007153766496991423,4.59,3.11,2.1976029529469088e-06,2.0442817913135514e-05,-3.170731782913208,-0.03271484375,-0.0185546875,0.005089253104216945,-0.3311624460356505,0.0041436893077913504,-0.36193203750406294,-0.8861996756877317,-0.8505164620085921,0.0,0.0,6.329015676933224,6.329034971060677,0.009984226383660599,0.00998423035438334,0.0,-0.0005724046439982536,-0.0006330301970055945,0.0
1626092302.40325,-0.052894942220878066,-0.0007013414326962731,4.59,3.1,0.004475244786590338,0.39858952164649963,0.6097561120986938,-0.00146484375,-0.0244140625,0.0026604191047769968,-0.10738167618655224,0.0033881496198771184,-0.23296737684327712,-0.8848804010956597,-0.9099398995460126,0.0,1.0,6.33126956523483,6.331288858842459,0.010311833494499436,0.010311837308199852,0.0,-0.0004171827381966914,-0.0005666645423259077,0.0
1626092302.47725,-0.05402628587178222,-0.000677502171124143,4.59,3.14,0.00027096853591501713,0.544097363948822,-31.829269409179688,0.00439453125,-0.0126953125,0.00046654839256914354,0.06649369700847535,0.0023078721151734718,-0.011219316483978198,-0.7897199484581326,-0.8815708717137347,0.0,0.0,6.331944627463784,6.331963921251663,0.009883449784724501,0.009883453339785042,0.0,-0.00036863392622032656,-0.0004986063416690887,0.0
1626092302.52325,-0.05488951636656456,-0.0006472423003121625,4.58,3.13,3.905415155713854e-07,-3.632944299170049e-06,1.2195122241973877,0.013671875,0.02294921875,-8.904727592909166e-05,0.04605389338250287,0.00033675926260759865,0.06000238955736603,-0.722168628963239,-0.7987823913825779,0.0,0.0,6.332929629756353,6.332948923582522,0.009896894568664936,0.009896897797176087,0.0,-0.00028780739681910996,-0.0004057317184992067,0.0
1626092302.58325,-0.055474752878891385,-0.0006112947958287584,4.63,3.12,0.050981782376766205,-0.18145135045051575,6.463414669036865,0.00146484375,-0.0537109375,0.03966737109362671,0.006824514607651207,0.00717689824269254,0.018216816161942193,-0.7223456136661939,-0.7657204629875285,0.5,0.0,6.333801121014981,6.333820414861781,0.010144806675910703,0.010144809679627857,0.0,-0.0002101999739438957,-0.00031247189496990616,0.0
1626092302.64325,-0.05611964611269536,-0.0005535718919801131,4.61,3.06,0.49880069494247437,0.01588023081421852,-3.7195122241973877,0.10498046875,-0.0849609375,0.18828938504508586,0.014553656943402379,0.13608322912607584,0.01785372472834317,-0.7232728922129346,-0.7354361848883895,0.5,0.0,6.336000558694608,6.336019869509572,0.009930826522189658,0.009930940504357942,0.0,9.759184608272909e-05,-5.759449908722474e-05,0.0
1626092302.70325,-0.05613644716785345,-0.0005167484667351454,4.56,3.0,0.5044934153556824,0.03427332639694214,-1.0365853309631348,-0.06494140625,0.07421875,0.2184791228222257,0.011915464213973844,0.17814810186521782,0.018006291915293217,-0.7219559403170487,-0.7279088509604148,0.5,0.0,6.336779591581354,6.336798944595148,0.009318010424912612,0.009318236611887628,0.0,7.774593072862486e-05,3.594434334793619e-05,0.0
1626092302.76325,-0.055953776749210066,-0.00047650726004599985,4.52,2.82,0.4837409257888794,-0.04962799325585365,-0.3658536672592163,0.2265625,-0.04150390625,0.2900958842411913,0.009258234065167814,0.22971074770952163,0.012371415042906665,-0.7206884366470235,-0.721644298811053,0.5,0.0,6.338159652584171,6.33817915693467,0.009522759939919283,0.009523204558518518,0.0,6.662311291209968e-05,8.488081946973229e-05,0.0
1626092302.82325,-0.0555736439766576,-0.00043403909527088184,4.49,2.68,0.5129023790359497,-0.00028747160104103386,-2.9268293380737305,-0.4951171875,0.14697265625,0.3324061071852834,0.012269456413603603,0.30698962728531526,0.01085159416663491,-0.7206203049604439,-0.7198086698811627,0.5,0.0,6.34008916069576,6.3401090215221885,0.01037592037505817,0.010376756643415556,0.0,4.071534135416289e-05,9.176307291937504e-05,0.0
1626092302.88325,-0.05499598769391383,-0.00039096984335235645,4.45,2.49,0.3707295358181,0.0002588971401564777,-0.6707317233085632,-0.1103515625,-0.0390625,0.3054466296825945,0.005698752740760067,0.33500168812463726,0.008838609129835232,-0.7206352713691885,-0.7189124069462127,0.0,0.0,6.342634275540268,6.342654797529962,0.01032083034527994,0.010322232721400985,0.0,2.1807986366434117e-05,7.70558245221586e-05,0.0
1626092302.89325,-0.05453568577700555,-0.0003593512741676394,4.44,2.39,0.005774431861937046,0.01672748290002346,-0.7317073345184326,0.02685546875,0.1328125,0.2426928775450605,0.0035541932690169404,0.31481809883936246,0.005404966980630387,-0.7213883855186215,-0.7201241576083615,0.0,0.0,6.344673003302621,6.344694077377722,0.01016207851486224,0.010163730350641843,0.0,5.701206642372957e-07,5.2398967812247785e-05,0.0
1626092302.97725,-0.05375352514256675,-0.0003236954660603794,4.43,2.29,6.107023295953695e-07,-5.680951744579943e-06,1.2804877758026123,-0.00146484375,0.01611328125,0.14601617770673167,0.0023864810795666677,0.2649466114255585,0.0031306136893042157,-0.7212644383241597,-0.7206619334095173,0.0,0.0,6.346015925385889,6.346037342492203,0.00967377661110088,0.009675412473691745,0.0,1.408742037567837e-05,4.085478069133081e-05,0.0
1626092303.0032501,-0.052997962449601185,-0.0002904989843455287,4.43,2.23,6.069785740692168e-07,-5.646311819873517e-06,1.3414634466171265,-0.00244140625,0.0068359375,0.08180159692229706,0.0013717565780173688,0.16831113716020296,0.001577819931987086,-0.721154405017643,-0.7207673782935674,0.0,0.0,6.347856355911116,6.347878156146169,0.010050936824155199,0.010052295437405268,0.0,2.1805552665143903e-05,3.879472808418198e-05,0.0
1626092303.08125,-0.05199208523148662,-0.0002546246697170018,4.44,2.28,6.032998953742208e-07,-5.61209162697196e-06,1.2804877758026123,-0.00244140625,0.0185546875,0.04691593902414561,0.0009760137931254202,0.10233498427023963,0.001095911112310307,-0.7211897692530258,-0.7208463861587279,0.0,0.0,6.348750942810674,6.348772833911186,0.009270297875729016,0.00927125977985159,0.0,2.5688300696371803e-05,3.8726758273246366e-05,0.0
1626092303.12325,-0.05100456508576037,-0.00021956297168973285,4.42,2.23,6.107023295953695e-07,-5.680951744579943e-06,1.3414634466171265,-0.0048828125,0.00341796875,0.025598986526993786,0.0010364554300987937,0.06074826345847705,0.0010379128124501909,-0.7211536968710359,-0.7208087634179854,0.0,0.0,6.349720675321601,6.3497426173877995,0.010371915928449967,0.010372626655494566,0.0,2.9013927399197626e-05,4.122587222572563e-05,0.0
1626092303.18325,-0.0499374166041014,-0.00018404349382874588,4.42,2.24,6.032998953742208e-07,-5.61209162697196e-06,1.2195122241973877,-0.0048828125,0.001953125,0.012990459025393678,0.000711864277605754,0.02295963927200476,0.0008102421950856758,-0.7212033134940882,-0.7207612101349294,0.0,0.0,6.35071485106725,6.35073679394964,0.01032016623280086,0.01032056936309827,0.0,2.86163389829536e-05,4.136306624051012e-05,0.0
1626092303.18525,-0.04915836079935309,-0.00015829176355023104,4.41,2.26,0.2025841772556305,-7.613256912009092e-06,1.7073171138763428,0.01513671875,0.13916015625,-0.0767333907918335,0.003606657895924902,-0.010509945220847585,0.0008308049712043542,-0.7198631743096507,-0.7207044282623245,-0.5,0.0,6.35119804917374,6.351219978673756,0.009835244031543323,0.00983550984735769,0.0,2.587648242538125e-05,4.013961869105255e-05,0.0
1626092303.2432501,-0.04826675266787632,-0.00013052043545668722,4.42,2.29,0.5373781323432922,-0.03304542228579521,4.207317352294922,0.2333984375,-0.51025390625,-0.12183934728566354,-0.006582925597364163,-0.07287720238714843,-0.00045419774413224187,-0.720302679414315,-0.7200085928609917,0.0,0.0,6.351973561923725,6.351995465389789,0.0096559184333081,0.009656085639158693,0.0,4.010204734674594e-05,3.7594273026879127e-05,0.0
1626092303.30325,-0.047275004129311106,-0.00010144324231196559,4.42,2.27,0.13467741012573242,0.016496289521455765,1.8902438879013062,-0.0244140625,-0.1318359375,-0.16720457495983115,0.008980071881363773,-0.14338611431513668,0.0003074532342859978,-0.7223877441209008,-0.7214471447998844,0.0,0.0,6.353179263542497,6.353201161315593,0.010048172507594873,0.010048342509415935,0.0,7.423498660677668e-05,5.477581858574395e-05,0.0
1626092303.37325,-0.04615250987942015,-7.140560671910948e-05,4.42,2.33,2.2439478470914764e-06,2.087393295369111e-05,1.7073171138763428,0.0,0.025390625,-0.125243081810454,0.003548538120030686,-0.15831568937043655,0.002631461347171634,-0.7215596036195319,-0.7212762370927412,0.0,0.0,6.354108042940673,6.354129997526723,0.009267952844385205,0.009268203092108506,0.0,7.121360866577658e-05,7.02646685709162e-05,0.0
1626092303.42325,-0.04504298846674147,-4.245373839019889e-05,4.44,2.37,2.2439478470914764e-06,2.087393295369111e-05,1.2804877758026123,0.00732421875,0.00341796875,-0.07256602199660445,0.0014767987861064509,-0.1386192622491639,0.0016729584753153598,-0.7214928971140561,-0.721081981107397,0.0,0.0,6.355267609651638,6.35528966759042,0.010369644866207475,0.010369957792606035,0.0,5.949777177079292e-05,7.28821875293834e-05,0.0
1626092303.4832501,-0.04389089233407708,-1.4173095252023245e-05,4.45,2.4,2.2439478470914764e-06,2.087393295369111e-05,1.3414634466171265,-0.0107421875,0.0224609375,-0.041116157630141884,0.0008584794179008118,-0.10113027918243675,0.0009143237727280559,-0.721520373501513,-0.7211197122796658,0.0,1.0,6.356183873820313,6.356206003917503,0.010197074120091307,0.01019735830416798,0.0,4.873151135794065e-05,6.678349432990523e-05,0.0
1626092303.58125,-0.041940535984648544,2.9040379263443886e-05,4.45,2.43,0.004781161900609732,0.9396775364875793,-55.853660583496094,-0.02685546875,0.11328125,-0.01504664935891384,0.21523787920761467,-0.04657067225733815,0.21298905213857447,-0.5317247057801932,-0.643076796816516,0.0,1.0,6.357834229789324,6.357856420660458,0.009302471659625767,0.009302630487138103,0.0,2.8639887176332986e-05,4.59919626988268e-05,0.0
1626092303.60325,-0.040978296235843585,5.004331772597492e-05,4.45,2.44,0.01048514898866415,0.9227771162986755,-54.45122146606445,0.01220703125,-0.0146484375,-0.010967149560352565,0.19241566592318682,-0.026870373061855288,0.22634032845464916,-0.3085057398096951,-0.4252357188475747,0.0,1.0,6.359541579719445,6.359563811496886,0.009264494358552448,0.009264590704759068,0.0,-7.011049796869834e-05,3.956083559082186e-06,0.0
1626092303.66325,-0.03994718220503488,7.104559975913398e-05,4.46,2.46,0.009134353138506413,0.9721052646636963,-52.0121955871582,0.060546875,0.01123046875,-0.008498851908870215,0.18123342491365166,-0.018984286777328795,0.2418165641707025,-0.08507238595759153,-0.22073880474939792,0.0,1.0,6.3610396436752,6.361061903802552,0.010350228161354317,0.010350296944773293,0.0,-0.0001514825344410736,-7.746921092856006e-05,0.0
1626092303.7232502,-0.038868250461169714,9.157468974741172e-05,4.47,2.44,0.0004692848597187549,-0.03262271732091904,4.5731706619262695,-0.0244140625,-0.0263671875,-0.006445045902619619,0.17999885928899848,-0.011526169950437079,0.25462086376319165,0.14539291488169767,0.05034616151591601,0.0,1.0,6.36286041558666,6.362882692564737,0.01038261345789983,0.010382653392652716,0.0,-0.000203868130557464,-0.00015887062951041886,0.0
1626092303.78325,-0.03775981594195398,0.00011126463101193292,4.47,2.41,1.2413054264470702e-06,-1.154702840722166e-05,1.2804877758026123,0.00244140625,-0.00244140625,-0.0038087031345697296,0.2478999014521168,-0.008206933065875976,0.22672476744234998,0.16133413397958543,0.13988916696560239,0.0,1.0,6.363863384745522,6.363885665961226,0.009971075812972968,0.00997110363044906,0.0,-0.00017022025613769448,-0.00018416755574142608,0.0
1626092303.7892501,-0.03693646946922533,0.00012559329425084484,4.47,2.41,0.00847376137971878,0.9125782251358032,-46.158538818359375,-0.13427734375,0.0205078125,-0.0027100213522803316,0.3454451581452429,-0.004213600933735394,0.30399804168593003,0.20344918332142575,0.2106102207102718,0.0,1.0,6.365795922437528,6.365818207448824,0.009939962504266828,0.009939979274788431,0.0,-0.00015165292969736828,-0.00018195974136006417,0.0
1626092303.87325,-0.03592119339157712,0.00014079183330945356,4.51,2.44,0.006577685475349426,0.9290034174919128,-54.69512176513672,-0.0986328125,0.07666015625,-0.0040300036480477456,0.2909532114153652,-0.002964823564719813,0.32234851061092984,0.46232591654062166,0.39125124817955564,0.0,1.0,6.368381760915486,6.368404046981661,0.010824376489522178,0.010824388328121078,0.0,-0.000267619007478324,-0.00021699017621912582,0.0
1626092303.90325,-0.0350085765116454,0.00015487868153432857,4.53,2.38,0.01089983806014061,0.9621673226356506,-54.32926940917969,-0.02001953125,-0.02392578125,-0.004446513985526086,0.26823819142126537,-0.003089656393657683,0.31920790486159456,0.6896142576854749,0.6092616443257206,0.0,1.0,6.370514605497724,6.3705368924384365,0.010255486745945166,0.010255495221245981,0.0,-0.0003419216993758074,-0.00028721419523139994,0.0
1626092303.97725,-0.033980547728386296,0.0001688972956804531,4.47,2.5,0.016878722235560417,0.79497891664505,-51.585365295410156,0.064453125,0.052734375,-0.004786447417984861,0.2665667830036774,-0.0035162756026699336,0.321853489433986,0.9120465990577642,0.8360181947892056,0.0,1.0,6.372314995431344,6.372337283297918,0.009320630326042705,0.009320636788356622,0.0,-0.00040180036408250894,-0.0003577916797796924,0.0
1626092304.02325,-0.0329981059741769,0.00018187288373697056,4.44,2.45,4.3966716134491435e-07,4.089927188033471e-06,2.012195110321045,0.00244140625,0.00341796875,-0.004359506859285425,0.17863703782336415,-0.00372243106533624,0.2810099260151484,1.030876296677944,1.0136244977385704,0.0,1.0,6.374617116558301,6.3746394037739496,0.00989042849061556,0.00989043418070563,0.0,-0.00040736527161161306,-0.0004153289321581818,0.0
1626092304.08325,-0.03199375676579917,0.00019405105722434109,4.42,2.42,4.3966716134491435e-07,4.089927188033471e-06,1.2804877758026123,-0.0107421875,0.01171875,-0.0023219161310706156,0.03452541975992224,-0.003097074171600376,0.13157138030300197,1.02195216140256,1.0383867675256264,0.0,1.0,6.3758801564162715,6.375902443266544,0.010210869340119489,0.010210874480313015,0.0,-0.000304656434805803,-0.00040061957076731184,0.0
1626092304.14325,-0.03047023911019073,0.0002115838654928984,4.4,2.64,0.012294337153434753,-0.9128134250640869,52.0121955871582,0.083984375,-0.0361328125,0.0013779441791998811,-0.15455316161783994,-5.8653102372038674e-06,-0.15880065855801812,0.854626553679426,0.9438874325636355,0.0,-1.0,6.377849797599294,6.37787208426894,0.009997449521012638,0.009997453366228789,0.0,-0.0002795806919953336,-0.00029623734404586133,0.0
1626092304.20325,-0.029615954276953817,0.0002200252241137926,4.48,2.48,0.002211241517215967,-0.19699271023273468,53.59756088256836,-0.00927734375,-0.0546875,0.0035062895813762715,-0.14674341017351722,0.0022001306729233657,-0.1838784439396906,0.6389987367622635,0.7898537530394125,0.0,0.0,6.378918163034664,6.378940449804543,0.009676704012201139,0.009676707330506597,0.0,-0.0003918755550321418,-0.0003388971190230226,0.0
1626092304.26325,-0.028727639008902035,0.00022791433530500255,4.56,2.39,3.672707578061818e-07,-3.416472281969618e-06,1.2195122241973877,0.00927734375,0.00927734375,0.0025222060668280344,-0.08885989117790576,0.0031911774963443813,-0.15518977954030558,0.5787467625365249,0.6426575776860698,0.0,0.0,6.3800333931343385,6.380055680110075,0.00930424752684727,0.00930425040264244,0.0,-0.00029350424106466886,-0.00033821228059008476,0.0
1626092304.32325,-0.027821286671640598,0.00023510411783686676,4.58,2.37,3.672707578061818e-07,-3.416472281969618e-06,1.3414634466171265,-0.00634765625,0.0107421875,0.007051270875361348,-0.006673666243679705,0.0037121968626718507,-0.02750622208763,0.5805645259990055,0.6019371259265194,0.5,0.0,6.380975198672617,6.380997485867779,0.009315870550659338,0.00931587306089348,0.0,-0.00022222012606043536,-0.0002863965960927144,0.0
1626092304.38325,-0.0269099122263651,0.000241500295663116,4.58,2.35,0.27442556619644165,0.001108623226173222,0.0,-0.08056640625,-0.30126953125,0.09108766672426095,0.012296745420280617,0.033876178247704905,0.00018952309463734357,0.5942015436738171,0.5952928539668297,0.5,0.0,6.381764302149352,6.381786590545103,0.010249330853165402,0.010249336004603201,0.0,-6.443666443840282e-05,-0.00022606508875803517,0.0
1626092304.47725,-0.02542853391116094,0.00025036591526836046,4.41,2.31,0.5001162886619568,-0.01660795323550701,0.3048780560493469,-0.07763671875,0.0478515625,0.2009657066820999,-0.004332269909386661,0.15185012413062562,-0.007983475984158658,0.584231907796015,0.5884700357017163,0.5,0.0,6.383685965631227,6.383708405230785,0.009995527149358672,0.00999566643821152,0.0,-0.0002494442374969036,-0.00017633940739357603,0.0
1626092304.5032501,-0.02470652964129921,0.00025411691871193067,4.36,2.27,0.4948374927043915,-0.00027819981914944947,-1.2195122241973877,-0.240234375,0.2197265625,0.2304599136900095,0.04407287688094454,0.2021974054178537,0.022547640209143373,0.5853096621778285,0.5879759609190426,0.0,1.0,6.384788107917306,6.384810862084262,0.009669348587630503,0.00966965540273791,0.0,-0.00023866674458603075,-0.0002122937975996646,0.0
1626092304.58125,-0.023894539098284984,0.0002572866725009712,4.24,2.26,0.14023911952972412,0.001096907421015203,2.0731706619262695,-0.04296875,0.25537109375,0.23056889494726165,0.17828361941675866,0.2330524407213405,0.1440300997456682,0.5901730487117558,0.6031310784965541,0.0,0.0,6.38616838346931,6.386191697902859,0.009296650344571031,0.00929717606410703,0.0,-0.0002765548865415554,-0.00023672082453795505,0.0
1626092304.622948,-0.023142782852476736,0.0002598899872103386,4.2,2.24,1.5840380456211278e-06,-1.4735238437424414e-05,0.792682945728302,-0.01171875,-0.02392578125,0.15707393209264092,0.10607328758906648,0.22236906130919712,0.1309332199540551,0.5891967675250599,0.6098118826939186,0.0,0.0,6.387947603844511,6.387971675054763,0.010379219649125332,0.010379951134237217,0.0,-5.5202123989509785e-05,-0.00019392731701879011,0.0
1626092304.6829479,-0.022381490001886207,0.0002618722372660522,4.16,2.21,1.5840380456211278e-06,-1.4735238437424414e-05,1.2804877758026123,0.00439453125,0.0009765625,0.0796714046949896,0.020346775365362328,0.1587617495536522,0.03701972377985229,0.5832531093543719,0.5989058631170532,0.0,0.0,6.389611537452911,6.389636260910163,0.01040995594427118,0.010410702628098002,0.0,0.00012002290440997349,-1.2086870031771922e-05,0.0
1626092304.684948,-0.021827416834266755,0.00026329200702697496,4.16,2.19,1.5840380456211278e-06,-1.4735238437424414e-05,1.3414634466171265,-0.001953125,0.00439453125,0.04511765807047411,0.04546457251397293,0.1147905675911656,0.011645483313919736,0.5830030778626406,0.5927543538841457,0.0,1.0,6.390310136089036,6.390335067635878,0.00994075551913622,0.009941381536887893,0.0,0.00012542728346363782,6.882426800081994e-05,0.0
1626092304.742948,-0.02122765670009514,0.00026428707324188563,4.17,2.14,0.006476865150034428,0.5598933100700378,-38.10975646972656,-0.01806640625,0.05224609375,0.024636660458496062,0.1429054184566524,0.06145462235686516,0.12539595696488323,0.639006834210799,0.6180729463621205,0.0,0.0,6.391474690373019,6.3914997702718495,0.009993411131203299,0.009993829748196743,0.0,6.793329453338394e-05,0.00011801164469840572,0.0
1626092304.802948,-0.020577817811377914,0.00026474807138865294,4.17,2.14,2.191407247664756e-06,2.0385185052873567e-05,2.2560975551605225,-0.01416015625,0.001953125,0.013424689566696513,0.09840359374181483,0.031997395138355145,0.12111332346848233,0.7028962306305646,0.6773673219615408,0.0,0.0,6.3924428182031185,6.3924679048255175,0.009747143795114615,0.00974741511415945,0.0,1.991891697993884e-05,7.777791191146397e-05,0.0
1626092304.872948,-0.019842757576269892,0.00026384092793664034,4.15,2.18,2.191407247664756e-06,2.0385185052873567e-05,1.2804877758026123,0.0048828125,0.0048828125,0.007543110813711166,0.019726801598337573,0.013950505280892466,0.03946716252284329,0.7010639211052975,0.6986364213770342,0.0,0.0,6.393307638654007,6.393332717102124,0.009316268664615938,0.009316433847017073,0.0,3.395396965259208e-05,6.449566212211774e-05,0.0
1626092304.922948,-0.019092420905151335,0.0002607946466631188,4.16,2.17,2.2048513983463636e-06,2.051024785032496e-05,1.3414634466171265,-0.009765625,0.00830078125,0.004199859133416404,0.004377377619688481,0.003602758619287337,0.01146180480743739,0.7002990417519027,0.702403075621616,0.0,0.0,6.394195926076419,6.394221000413209,0.01038540549660916,0.010385514809550248,0.0,3.780803379573756e-05,6.277347412009953e-05,0.0
1626092304.982948,-0.018314026703509605,0.00025568073978393733,4.15,2.18,2.2048513983463636e-06,2.051024785032496e-05,1.402438998222351,-0.001953125,0.01123046875,0.002086581659805062,0.0018378937076267213,-0.003671645301356519,0.0025418515296811005,0.7000449680808026,0.7024324007145901,0.0,0.0,6.39515568205285,6.395180748938414,0.010410456695663069,0.01041051091893204,0.0,3.733250588027852e-05,5.8553876774212776e-05,0.0
1626092305.0809479,-0.01707056866640805,0.00024769344715818326,4.14,2.16,2.2048513983463636e-06,2.051024785032496e-05,1.4634146690368652,0.00244140625,0.0087890625,0.0006665838226117693,0.0009872914164590395,-0.0066769684223116615,0.0009193414917365017,0.6999958582833782,0.7017461936412625,0.0,0.0,6.396427343263772,6.396452405199888,0.0097716612894416,0.009771677581218214,0.0,3.467460035545573e-05,5.155345577552655e-05,0.0
1626092305.102948,-0.016495411083356643,0.00024449526894130554,4.15,2.17,0.19853265583515167,0.05016113445162773,8.353658676147461,-0.0068359375,-0.17822265625,0.08508614786380328,0.0007727203955614117,0.026724203480009562,0.00025075111661540506,0.6906737530147239,0.700621386736804,0.5,0.0,6.397375665625697,6.397400727237317,0.00974907531224909,0.009749084351651123,0.0,1.8543360716796238e-05,4.4972457498412386e-05,0.0
1626092305.162948,-0.01592504368824504,0.00024148357834995418,3.99,2.36,0.5382342338562012,0.0164606012403965,-0.9756097793579102,0.5703125,-0.19091796875,0.11148623456629504,0.012793510698077756,0.06633664572756454,0.008637585981910886,0.693862017196055,0.69926387056192,0.5,0.0,6.39814109519227,6.398166162499921,0.009316119647464125,0.009316152642143666,0.0,1.490279034328458e-05,1.1093168047632862e-05,0.0
1626092305.2229478,-0.01536716664665936,0.00023848676354604323,3.77,2.39,0.5047976970672607,-0.0010971995070576668,-1.6463414430618286,-0.3115234375,-0.05419921875,0.2689957327914698,0.005069088863121796,0.16750060951594797,0.006392631948629099,0.6982776771140757,0.7001310195420204,0.5,0.0,6.399131884011346,6.3991569842567815,0.00938317725475032,0.009383312692209902,0.0,0.0001868977934061606,9.710945303280477e-05,0.0
1626092305.282948,-0.01482635316050232,0.0002354246453017645,3.6,2.42,0.4987889230251312,0.016983628273010254,0.18292683362960815,0.54638671875,0.021484375,0.37733348840427733,0.008351136557720242,0.28582070521390635,0.007809464537193883,0.700762223893556,0.7012906726579275,0.5,0.0,6.400828567333789,6.40085389978168,0.010426250252263626,0.010426825634897004,0.0,0.0002018500468930739,0.00016958907819727577,0.0
1626092305.288948,-0.014426548536584006,0.00023316021884707986,3.53,2.43,0.5088874101638794,0.0005648532533086836,-1.8902438879013062,0.0234375,-0.068359375,0.426907067003087,0.008073914404170084,0.37561665167246133,0.007898969271497781,0.7015685167278444,0.7022280732223698,0.5,0.0,6.402862794830541,6.402888692173548,0.010227626538172585,0.010228856760497408,0.0,0.00017991159794476151,0.00019463421390495075,0.0
1626092305.372948,-0.013970443776635645,0.00023031736522793292,3.42,2.43,0.5084536671638489,0.03291153907775879,4.329268455505371,0.04345703125,-0.1572265625,0.4570658035233091,0.012480789833525553,0.4392391483594541,0.011483890189115217,0.7020639175166958,0.7028288434097473,0.5,0.0,6.405563432990103,6.4055902666102575,0.010004184009236508,0.010006211752338217,0.0,0.00015529918089347212,0.00018685705439630963,0.0
1626092305.402948,-0.01359734560997168,0.00022691978069632428,3.38,2.43,0.5036640763282776,0.015792034566402435,-0.6097561120986938,-0.076171875,0.0908203125,0.47116437086916846,0.0067772564625330845,0.47157441320925125,0.006643379853087202,0.7023245731594796,0.7029770943978383,0.5,0.0,6.4079237533413975,6.407951468303254,0.009365736942394016,0.009368347710738197,0.0,0.00012526085574426048,0.0001661176920783931,0.0
1626092305.476948,-0.013215634379678754,0.00022220048825559232,3.2,2.44,0.509671151638031,0.0005575269460678101,4.634146213531494,0.12353515625,-0.15576171875,0.4854540521912777,0.01312660872798845,0.5036037765304486,0.012634505832728371,0.7021152095223446,0.702884573589826,0.5,0.0,6.4124483429135575,6.412477869898303,0.0093161587302568,0.009319616476632092,0.0,7.30844969969223e-05,0.00012145894252840068,0.0
1626092305.522948,-0.012881596086216937,0.00021658637043102288,3.12,2.48,0.49788936972618103,-0.0005608010687865317,-2.865853786468506,-0.53564453125,0.07861328125,0.4919229453424113,0.007631546000247968,0.5200101998943041,0.00870025805360995,0.7021317774159406,0.7030981811402345,0.5,0.0,6.416461680110307,6.4164929845604775,0.010385013242322416,0.010389190932566858,0.0,6.739303590665536e-05,9.764474909298753e-05,0.0
1626092305.582948,-0.012570337319321584,0.00020924051799100244,3.02,2.48,0.5035935044288635,0.016340676695108414,1.1585365533828735,-0.36474609375,0.109375,0.49574973985036863,0.007811498549559501,0.5266834996712552,0.004093979118726214,0.7019554100782414,0.7019780212796716,0.5,0.0,6.420463023507073,6.420495990433146,0.010245137908858035,0.010249701302464448,0.0,1.774340401897677e-05,6.0713177491545705e-05,0.0
1626092305.642948,-0.012109131227214832,0.00019757316548306962,2.8,2.47,0.5017767548561096,-0.0005590252694673836,2.2560975551605225,-0.1181640625,-0.10693359375,0.4994315006745298,0.008268374983604854,0.5277295396485061,0.006760664426540875,0.7018386183569305,0.7022400305760841,0.5,0.0,6.428660873401056,6.4286972816097245,0.009786789049199652,0.00979173167256887,0.0,-1.344586139786199e-05,4.556780993753581e-06,0.0
1626092305.7029479,-0.011835360362431577,0.0001919800297140686,2.66,2.5,0.5026005506515503,-0.0005442054243758321,3.5975611209869385,0.36083984375,-0.458984375,0.4964601080644091,0.0016580925956746586,0.5242926237290331,0.002116287955714242,0.7020597460738299,0.7023808130779099,0.5,0.0,6.433924588752563,6.433963311555807,0.009853361129478273,0.009858555822258894,0.0,-7.471903444226396e-06,-1.0648100517187591e-05,0.0
1626092305.762948,-0.011530301972211176,0.00018696550175855128,2.65,2.51,0.5065086483955383,0.0010674081277102232,4.329268455505371,0.12060546875,0.07275390625,0.4978016674652176,0.01640170738404652,0.5208931890090238,0.011355070748907866,0.7022456280579453,0.7024472805871027,0.5,0.0,6.437357675872507,6.437397930383064,0.00959727542415931,0.009602580963984133,0.0,1.134678854884612e-06,-1.2007431683305157e-05,0.0
1626092305.822948,-0.011197777909739824,0.00018238246846035978,2.55,2.52,0.49480482935905457,1.6403102563344873e-05,1.2195122241973877,-0.13037109375,-0.1982421875,0.499463293652398,0.006399462893853931,0.5200137650466361,0.007876906737055132,0.702160236479042,0.7029290806998308,0.5,0.0,6.442094447409423,6.442136768234401,0.010408940684567264,0.010414438893807899,0.0,4.356710416595935e-06,-9.190200088861986e-06,0.0
1626092305.882948,-0.010846818188799047,0.0001781128595682909,2.42,2.51,0.40560805797576904,-0.03303283825516701,-3.170731782913208,0.28369140625,0.42578125,0.4211659174692045,0.013649466921395341,0.49390198862803486,0.00850726789147245,0.7019216197087351,0.7021756586725882,0.0,0.0,6.445999974925,6.446043921742481,0.010250259192018198,0.010255664596373929,0.0,-1.301009890574329e-05,-1.4245530732189118e-05,0.0
1626092305.976948,-0.01024543158705,0.000171393578398485,2.07,2.5,1.2914081253256882e-06,-1.2013099876639899e-05,1.1585365533828735,-0.00439453125,0.01123046875,0.16727122201190248,0.0014236165307758637,0.30984639588358687,0.0018503488716831431,0.7006844743556694,0.701248382084261,0.0,0.0,6.451840076035863,6.451886344075756,0.0097870088540011,0.009791180773757555,0.0,-3.6321489819582823e-06,-1.883653395661581e-05,0.0
1626092306.002948,-0.009906791483327279,0.0001674094895725521,2.07,2.51,1.2914081253256882e-06,-1.2013099876639899e-05,1.4634146690368652,-0.00390625,0.009765625,0.0948672219133653,0.0010073473005851104,0.19657707176271244,0.0010006516911770058,0.7006501287496633,0.7009173428458121,0.0,0.0,6.453439120906968,6.45348589336203,0.009369163307238318,0.00937226718763975,0.0,-1.9153462206878162e-06,-1.2393024860933146e-05,0.0
1626092306.062948,-0.009520587793849077,0.00016220707120558184,2.08,2.49,1.2914081253256882e-06,-1.2013099876639899e-05,1.402438998222351,-0.00927734375,0.01025390625,0.0536395951759486,0.0011793205095739,0.10610873239211796,0.001053962364226582,0.7006578062917991,0.7009009542373286,0.0,0.0,6.454661174135473,6.454708188634376,0.009566422330382367,0.009568559673096591,0.0,-1.6869648041086853e-06,-8.566459704601719e-06,0.0
1626092306.122948,-0.009097897248910702,0.00015566225144031737,2.08,2.5,1.2993308473596699e-06,-1.2086799870303366e-05,1.402438998222351,-0.0068359375,0.005859375,0.0298919910832297,0.001113095611766105,0.04241652088995228,0.0008851614450461537,0.7006681581101426,0.7009518256848525,0.0,0.0,6.455716053001811,6.45576312790895,0.01040209749282547,0.010403475597431053,0.0,-2.07132790266631e-06,-6.655603967464036e-06,0.0
1626092306.1829479,-0.008658664189499374,0.0001483746681229938,2.03,2.5,1.2993308473596699e-06,-1.2086799870303366e-05,1.3414634466171265,-0.00927734375,0.01171875,0.014853097451956938,0.0007904722385709027,0.007110541750490433,0.0009373336850444108,0.7006426802562816,0.7010317183941656,0.0,0.0,6.456462488383838,6.456509548430542,0.010248786685081218,0.010249621384531123,0.0,-2.5387822001309335e-06,-5.567961023561111e-06,0.0
1626092306.184948,-0.008340606857775145,0.00014310831748062198,2.04,2.49,1.2993308473596699e-06,-1.2086799870303366e-05,1.3414634466171265,0.00244140625,-0.00048828125,0.008704516459839311,0.0008675580299632301,-0.011176011462599366,0.0006753729314019607,0.7006423344793064,0.7010410527386545,0.0,0.0,6.457112392213146,6.457159431711318,0.009756869163811636,0.009757354122119904,0.0,-2.9533642940648525e-06,-5.0539959429893134e-06,0.0
1626092306.242948,-0.008015193059494071,0.0001382896630980382,2.05,2.51,1.2993308473596699e-06,-1.2086799870303366e-05,1.3414634466171265,-0.00732421875,0.0087890625,0.004921774845505845,0.0007261822709473743,-0.023681922327105,0.0007294519079713185,0.7006385697453995,0.7010999265046335,0.0,0.0,6.458072774832039,6.4581197988965595,0.009972339473695963,0.009972589503520736,0.0,-3.2754278108361387e-06,-4.976500214485609e-06,0.0
1626092306.302948,-0.007703615367464093,0.0001341627853621852,2.07,2.51,1.2993308473596699e-06,-1.2086799870303366e-05,1.402438998222351,0.00439453125,0.01611328125,0.0027825514013854946,0.0009855723955857645,-0.024636991934800727,0.0008427001595110417,0.7006488937409133,0.7011261812852941,0.0,0.0,6.458602375310001,6.4586493946989325,0.009354974248245312,0.00935512972272904,0.0,-3.4693495659427325e-06,-4.867409103602195e-06,0.0
1626092306.372948,-0.0073991358401212124,0.00013039970218409644,2.06,2.53,1.2993308473596699e-06,-1.2086799870303366e-05,1.2195122241973877,0.00048828125,0.01025390625,0.0015720320413857216,0.0008417344404381717,-0.025562798543127204,0.0008305175658272592,0.7006440222949376,0.7011816888655928,0.0,0.0,6.459569138465411,6.459616155909836,0.009414990420151717,0.009415071291014175,0.0,-3.5618415610827422e-06,-4.8322006726742086e-06,0.0
1626092306.422948,-0.007123905069565424,0.00012706821824638202,2.06,2.52,1.2993308473596699e-06,-1.2086799870303366e-05,1.2804877758026123,-0.00048828125,0.0078125,0.0008760556099302201,0.0009795948269190912,-0.02395676520502945,0.0008638311797424563,0.7006622353503001,0.7012160830693457,0.0,0.0,6.460401391599798,6.460448410857256,0.009350657349415079,0.009350709682473942,0.0,-3.617732179142779e-06,-4.730914584964611e-06,0.0
1626092306.482948,-0.006862385059712001,0.00012396404138876767,2.07,2.51,1.2993308473596699e-06,-1.2086799870303366e-05,1.2804877758026123,-0.00146484375,0.013671875,0.00043529041752092947,0.0005442576155690488,-0.023942402031737496,0.000617243674240866,0.7006308712978186,0.701241817952071,0.0,0.0,6.461421601064635,6.46146862252681,0.010419118881722145,0.010419160790134075,0.0,-3.4645223221516828e-06,-4.656219011844251e-06,0.0
