time,la_x,la_y,uwb_x,uwb_y,vel_linear_x,vel_angular_z,mpu_ang_vel_z,mpu_linear_acc_x,mpu_linear_acc_y,odom_linear_x,odom_angular_z,odom_filtered_linear_x,odom_filtered_angular_z,odom_yaw,odom_filtered_yaw
1624632516.0687919,4.091759950696535e-17,-2.3105176978043556e-16,0.0,0.0,,,,,,,,-7.218838919069214e-16,0.0017614817409261046,,1.3455950088221593
1624632516.0687919,4.091759950696535e-17,-2.3105176978043556e-16,0.0,0.0,,,1.3414634466171265,-0.0126953125,0.0107421875,,,-7.218838919069214e-16,0.0017614817409261046,,1.3455950088221593
1624632516.1287918,4.197761415092534e-17,-2.3382515241281907e-16,0.0,0.0,,,1.3414634466171265,-0.0126953125,0.0107421875,-7.070542556460751e-16,0.0017938723805341957,-7.17408088266631e-16,0.0016998398887080554,1.344007412407235,1.3456033167544494
1624632516.1287918,4.197761415092534e-17,-2.3382515241281907e-16,0.0,0.0,,,1.3414634466171265,-0.0126953125,0.0107421875,-7.070542556460751e-16,0.0017938723805341957,-7.17408088266631e-16,0.0016998398887080554,1.344007412407235,1.3456033167544494
1624632516.1287918,4.197761415092534e-17,-2.3382515241281907e-16,0.0,0.0,2.6208311965092435e-07,-2.437982629999169e-06,1.3414634466171265,-0.0126953125,0.0107421875,-7.070542556460751e-16,0.0017938723805341957,-7.17408088266631e-16,0.0016998398887080554,1.344007412407235,1.3456033167544494
1624632516.1287918,4.197761415092534e-17,-2.3382515241281907e-16,5.75,4.92,2.6208311965092435e-07,-2.437982629999169e-06,1.3414634466171265,-0.0126953125,0.0107421875,-7.070542556460751e-16,0.0017938723805341957,-7.17408088266631e-16,0.0016998398887080554,1.344007412407235,1.3456033167544494
1624632516.158792,4.434021668431459e-17,-2.3581239048344097e-16,5.75,4.92,2.6208311965092435e-07,-2.437982629999169e-06,1.3414634466171265,-0.0126953125,0.0107421875,-6.858448170210535e-16,0.0019242439790576873,-7.116477864218962e-16,0.0017564852193216395,1.3440694739266081,1.345605577621497
1624632516.158792,4.434021668431459e-17,-2.3581239048344097e-16,5.75,4.92,2.6208311965092435e-07,-2.437982629999169e-06,1.3414634466171265,-0.0126953125,0.0107421875,-6.858448170210535e-16,0.0019242439790576873,-7.116477864218962e-16,0.0017564852193216395,1.3440694739266081,1.345605577621497
1624632516.158792,4.434021668431459e-17,-2.3581239048344097e-16,5.75,4.92,2.6208311965092435e-07,-2.437982629999169e-06,1.3414634466171265,-0.0126953125,0.0107421875,-6.858448170210535e-16,0.0019242439790576873,-7.116477864218962e-16,0.0017564852193216395,1.3440694739266081,1.345605577621497
1624632516.158792,4.434021668431459e-17,-2.3581239048344097e-16,5.75,4.92,2.5584304808035085e-07,-2.3799352675268892e-06,1.3414634466171265,-0.0126953125,0.0107421875,-6.858448170210535e-16,0.0019242439790576873,-7.116477864218962e-16,0.0017564852193216395,1.3440694739266081,1.345605577621497
1624632516.158792,4.434021668431459e-17,-2.3581239048344097e-16,5.75,4.92,2.5584304808035085e-07,-2.3799352675268892e-06,1.3414634466171265,-0.01416015625,0.009765625,-6.858448170210535e-16,0.0019242439790576873,-7.116477864218962e-16,0.0017564852193216395,1.3440694739266081,1.345605577621497
1624632516.188792,4.778939324926471e-17,-2.373478510574274e-16,5.75,4.92,2.5584304808035085e-07,-2.3799352675268892e-06,1.3414634466171265,-0.01416015625,0.009765625,-6.653101211241915e-16,0.001861317641131907,-7.03755419481986e-16,0.0017382480353623116,1.3440100587145065,1.34556929824414
1624632516.188792,4.778939324926471e-17,-2.373478510574274e-16,5.75,4.92,2.5584304808035085e-07,-2.3799352675268892e-06,1.3414634466171265,-0.01416015625,0.009765625,-6.653101211241915e-16,0.001861317641131907,-7.03755419481986e-16,0.0017382480353623116,1.3440100587145065,1.34556929824414
1624632516.188792,4.778939324926471e-17,-2.373478510574274e-16,5.75,4.92,2.5584304808035085e-07,-2.3799352675268892e-06,1.3414634466171265,-0.01416015625,0.009765625,-6.653101211241915e-16,0.001861317641131907,-7.03755419481986e-16,0.0017382480353623116,1.3440100587145065,1.34556929824414
1624632516.188792,4.778939324926471e-17,-2.373478510574274e-16,5.75,4.92,2.5584304808035085e-07,-2.3799352675268892e-06,1.3414634466171265,-0.01416015625,0.009765625,-6.653101211241915e-16,0.001861317641131907,-7.03755419481986e-16,0.0017382480353623116,1.3440100587145065,1.34556929824414
1624632516.188792,4.778939324926471e-17,-2.373478510574274e-16,5.75,4.94,2.6208311965092435e-07,-2.437982629999169e-06,1.3414634466171265,-0.01416015625,0.009765625,-6.653101211241915e-16,0.001861317641131907,-7.03755419481986e-16,0.0017382480353623116,1.3440100587145065,1.34556929824414
1624632516.248792,4.8410446602040815e-17,-2.396930002507487e-16,5.75,4.94,2.6208311965092435e-07,-2.437982629999169e-06,1.3414634466171265,-0.01416015625,0.009765625,-6.931433845330258e-16,0.0017622084920822475,-6.997069738620563e-16,0.0016955334426327598,1.3440063014753352,1.3455811160988675
1624632516.248792,4.8410446602040815e-17,-2.396930002507487e-16,5.75,4.94,2.6208311965092435e-07,-2.437982629999169e-06,1.3414634466171265,-0.01416015625,0.009765625,-6.931433845330258e-16,0.0017622084920822475,-6.997069738620563e-16,0.0016955334426327598,1.3440063014753352,1.3455811160988675
1624632516.248792,4.8410446602040815e-17,-2.396930002507487e-16,5.75,4.94,2.6208311965092435e-07,-2.437982629999169e-06,1.3414634466171265,-0.01416015625,0.009765625,-6.931433845330258e-16,0.0017622084920822475,-6.997069738620563e-16,0.0016955334426327598,1.3440063014753352,1.3455811160988675
1624632516.248792,4.8410446602040815e-17,-2.396930002507487e-16,5.75,4.94,2.6208311965092435e-07,-2.437982629999169e-06,1.2804877758026123,-0.0146484375,0.00439453125,-6.931433845330258e-16,0.0017622084920822475,-6.997069738620563e-16,0.0016955334426327598,1.3440063014753352,1.3455811160988675
1624632516.248792,4.8410446602040815e-17,-2.396930002507487e-16,5.75,4.94,2.6208311965092435e-07,-2.437982629999169e-06,1.2804877758026123,-0.0146484375,0.00439453125,-6.931433845330258e-16,0.0017622084920822475,-6.997069738620563e-16,0.0016955334426327598,1.3440063014753352,1.3455811160988675
1624632516.3087919,4.6576273800424756e-17,-2.427639034502737e-16,5.75,4.94,2.6208311965092435e-07,-2.437982629999169e-06,1.2804877758026123,-0.0146484375,0.00439453125,-7.189787749148919e-16,0.001651752804848809,-7.002909694335375e-16,0.00161744846058476,1.3440014095336947,1.3455867129797003
1624632516.3087919,4.6576273800424756e-17,-2.427639034502737e-16,5.75,4.94,2.6208311965092435e-07,-2.437982629999169e-06,1.2804877758026123,-0.0146484375,0.00439453125,-7.189787749148919e-16,0.001651752804848809,-7.002909694335375e-16,0.00161744846058476,1.3440014095336947,1.3455867129797003
1624632516.3087919,4.6576273800424756e-17,-2.427639034502737e-16,5.75,4.94,2.6208311965092435e-07,-2.437982629999169e-06,1.2804877758026123,-0.0146484375,0.00439453125,-7.189787749148919e-16,0.001651752804848809,-7.002909694335375e-16,0.00161744846058476,1.3440014095336947,1.3455867129797003
1624632516.3087919,4.6576273800424756e-17,-2.427639034502737e-16,5.76,4.95,2.6208311965092435e-07,-2.437982629999169e-06,1.2804877758026123,-0.0146484375,0.00439453125,-7.189787749148919e-16,0.001651752804848809,-7.002909694335375e-16,0.00161744846058476,1.3440014095336947,1.3455867129797003
1624632516.3087919,4.6576273800424756e-17,-2.427639034502737e-16,5.76,4.95,2.6208311965092435e-07,-2.437982629999169e-06,1.2804877758026123,-0.0146484375,0.00439453125,-7.189787749148919e-16,0.001651752804848809,-7.002909694335375e-16,0.00161744846058476,1.3440014095336947,1.3455867129797003
1624632516.3687918,4.835473681145394e-17,-2.4515069209335194e-16,5.76,4.95,2.6208311965092435e-07,-2.437982629999169e-06,1.2804877758026123,-0.0146484375,0.00439453125,-6.764796461760027e-16,0.0017028157421146064,-6.941085125381639e-16,0.0015892265409328454,1.344002564602434,1.3455897191381219
1624632516.3687918,4.835473681145394e-17,-2.4515069209335194e-16,5.76,4.95,2.6208311965092435e-07,-2.437982629999169e-06,1.2804877758026123,-0.0146484375,0.00439453125,-6.764796461760027e-16,0.0017028157421146064,-6.941085125381639e-16,0.0015892265409328454,1.344002564602434,1.3455897191381219
1624632516.3687918,4.835473681145394e-17,-2.4515069209335194e-16,5.76,4.95,2.6208311965092435e-07,-2.437982629999169e-06,1.2804877758026123,-0.0146484375,0.00439453125,-6.764796461760027e-16,0.0017028157421146064,-6.941085125381639e-16,0.0015892265409328454,1.344002564602434,1.3455897191381219
1624632516.3687918,4.835473681145394e-17,-2.4515069209335194e-16,5.76,4.95,2.6208311965092435e-07,-2.437982629999169e-06,1.2804877758026123,-0.0146484375,0.00439453125,-6.764796461760027e-16,0.0017028157421146064,-6.941085125381639e-16,0.0015892265409328454,1.344002564602434,1.3455897191381219
1624632516.3687918,4.835473681145394e-17,-2.4515069209335194e-16,5.76,4.95,2.6208311965092435e-07,-2.437982629999169e-06,1.2804877758026123,-0.0107421875,0.005859375,-6.764796461760027e-16,0.0017028157421146064,-6.941085125381639e-16,0.0015892265409328454,1.344002564602434,1.3455897191381219
1624632516.3687918,4.963948122236846e-17,-2.468750017353565e-16,5.76,4.95,2.6208311965092435e-07,-2.437982629999169e-06,1.2804877758026123,-0.0107421875,0.005859375,-6.764796461760027e-16,0.0017028157421146064,-6.91661071543707e-16,0.0015827032422919309,1.344002564602434,1.3455068335200864
1624632516.3687918,4.963948122236846e-17,-2.468750017353565e-16,5.76,4.95,2.6208311965092435e-07,-2.437982629999169e-06,1.2804877758026123,-0.0107421875,0.005859375,-6.764796461760027e-16,0.0017028157421146064,-6.91661071543707e-16,0.0015827032422919309,1.344002564602434,1.3455068335200864
1624632516.3687918,4.963948122236846e-17,-2.468750017353565e-16,5.76,4.95,2.686352047476248e-07,-2.4989321900648065e-06,1.2804877758026123,-0.0107421875,0.005859375,-6.764796461760027e-16,0.0017028157421146064,-6.91661071543707e-16,0.0015827032422919309,1.344002564602434,1.3455068335200864
1624632516.3687918,4.963948122236846e-17,-2.468750017353565e-16,5.76,4.95,2.686352047476248e-07,-2.4989321900648065e-06,1.2804877758026123,-0.0107421875,0.005859375,-6.764796461760027e-16,0.0017028157421146064,-6.91661071543707e-16,0.0015827032422919309,1.344002564602434,1.3455068335200864
1624632516.3687918,4.963948122236846e-17,-2.468750017353565e-16,5.76,4.94,2.686352047476248e-07,-2.4989321900648065e-06,1.2804877758026123,-0.0107421875,0.005859375,-6.764796461760027e-16,0.0017028157421146064,-6.91661071543707e-16,0.0015827032422919309,1.344002564602434,1.3455068335200864
1624632516.4507918,4.961756456640983e-17,-2.494063922555961e-16,5.76,4.94,2.686352047476248e-07,-2.4989321900648065e-06,1.2804877758026123,-0.0107421875,0.005859375,-6.878667461643443e-16,0.0018393745730118259,-6.876321313752263e-16,0.0016635516362742229,1.3440459639091598,1.3455818994778552
1624632516.4507918,4.961756456640983e-17,-2.494063922555961e-16,5.76,4.94,2.686352047476248e-07,-2.4989321900648065e-06,1.2804877758026123,-0.0107421875,0.005859375,-6.878667461643443e-16,0.0018393745730118259,-6.876321313752263e-16,0.0016635516362742229,1.3440459639091598,1.3455818994778552
1624632516.4507918,4.961756456640983e-17,-2.494063922555961e-16,5.76,4.94,2.686352047476248e-07,-2.4989321900648065e-06,1.2804877758026123,-0.0107421875,0.005859375,-6.878667461643443e-16,0.0018393745730118259,-6.876321313752263e-16,0.0016635516362742229,1.3440459639091598,1.3455818994778552
1624632516.4507918,4.961756456640983e-17,-2.494063922555961e-16,5.76,4.94,2.6208311965092435e-07,-2.437982629999169e-06,1.2804877758026123,-0.0107421875,0.005859375,-6.878667461643443e-16,0.0018393745730118259,-6.876321313752263e-16,0.0016635516362742229,1.3440459639091598,1.3455818994778552
1624632516.4507918,4.961756456640983e-17,-2.494063922555961e-16,5.76,4.94,2.6208311965092435e-07,-2.437982629999169e-06,1.3414634466171265,-0.01708984375,0.005859375,-6.878667461643443e-16,0.0018393745730118259,-6.876321313752263e-16,0.0016635516362742229,1.3440459639091598,1.3455818994778552
1624632516.488792,5.1526836405012757e-17,-2.5137495876596544e-16,5.76,4.94,2.6208311965092435e-07,-2.437982629999169e-06,1.3414634466171265,-0.01708984375,0.005859375,-6.617654941169727e-16,0.0017645122035029983,-6.82112890919305e-16,0.0016473816561489523,1.3440046946537867,1.3455564041357602
1624632516.488792,5.1526836405012757e-17,-2.5137495876596544e-16,5.76,4.94,2.6208311965092435e-07,-2.437982629999169e-06,1.3414634466171265,-0.01708984375,0.005859375,-6.617654941169727e-16,0.0017645122035029983,-6.82112890919305e-16,0.0016473816561489523,1.3440046946537867,1.3455564041357602
1624632516.488792,5.1526836405012757e-17,-2.5137495876596544e-16,5.76,4.94,2.6208311965092435e-07,-2.437982629999169e-06,1.3414634466171265,-0.01708984375,0.005859375,-6.617654941169727e-16,0.0017645122035029983,-6.82112890919305e-16,0.0016473816561489523,1.3440046946537867,1.3455564041357602
1624632516.488792,5.1526836405012757e-17,-2.5137495876596544e-16,5.76,4.94,2.6208311965092435e-07,-2.437982629999169e-06,1.3414634466171265,-0.01708984375,0.005859375,-6.617654941169727e-16,0.0017645122035029983,-6.82112890919305e-16,0.0016473816561489523,1.3440046946537867,1.3455564041357602
1624632516.488792,5.1526836405012757e-17,-2.5137495876596544e-16,5.76,4.94,2.6208311965092435e-07,-2.437982629999169e-06,1.3414634466171265,-0.01708984375,0.005859375,-6.617654941169727e-16,0.0017645122035029983,-6.82112890919305e-16,0.0016473816561489523,1.3440046946537867,1.3455564041357602
1624632516.554792,5.097363548607981e-17,-2.541182141627791e-16,5.76,4.94,2.6208311965092435e-07,-2.437982629999169e-06,1.3414634466171265,-0.01708984375,0.005859375,-6.853720502348064e-16,0.0017530001630684372,-6.797653689024092e-16,0.0016434966376817936,1.3440145478834846,1.345584937386203
1624632516.554792,5.097363548607981e-17,-2.541182141627791e-16,5.76,4.94,2.6208311965092435e-07,-2.437982629999169e-06,1.3414634466171265,-0.01708984375,0.005859375,-6.853720502348064e-16,0.0017530001630684372,-6.797653689024092e-16,0.0016434966376817936,1.3440145478834846,1.345584937386203
1624632516.554792,5.097363548607981e-17,-2.541182141627791e-16,5.76,4.94,2.6208311965092435e-07,-2.437982629999169e-06,1.3414634466171265,-0.01708984375,0.005859375,-6.853720502348064e-16,0.0017530001630684372,-6.797653689024092e-16,0.0016434966376817936,1.3440145478834846,1.345584937386203
1624632516.554792,5.097363548607981e-17,-2.541182141627791e-16,5.76,4.94,2.6208311965092435e-07,-2.437982629999169e-06,1.3414634466171265,-0.015625,0.00341796875,-6.853720502348064e-16,0.0017530001630684372,-6.797653689024092e-16,0.0016434966376817936,1.3440145478834846,1.345584937386203
1624632516.554792,5.097363548607981e-17,-2.541182141627791e-16,5.76,4.94,2.6208311965092435e-07,-2.437982629999169e-06,1.3414634466171265,-0.015625,0.00341796875,-6.853720502348064e-16,0.0017530001630684372,-6.797653689024092e-16,0.0016434966376817936,1.3440145478834846,1.345584937386203
1624632516.6087918,4.7713069774367734e-17,-2.5752756704931317e-16,5.76,4.94,2.6208311965092435e-07,-2.437982629999169e-06,1.3414634466171265,-0.015625,0.00341796875,-7.158313434580624e-16,0.0016533196666236548,-6.832264914053349e-16,0.0015826555297062373,1.3440006996152132,1.3455783570246145
1624632516.6087918,4.7713069774367734e-17,-2.5752756704931317e-16,5.76,4.94,2.6208311965092435e-07,-2.437982629999169e-06,1.3414634466171265,-0.015625,0.00341796875,-7.158313434580624e-16,0.0016533196666236548,-6.832264914053349e-16,0.0015826555297062373,1.3440006996152132,1.3455783570246145
1624632516.6087918,4.7713069774367734e-17,-2.5752756704931317e-16,5.76,4.94,2.6208311965092435e-07,-2.437982629999169e-06,1.3414634466171265,-0.015625,0.00341796875,-7.158313434580624e-16,0.0016533196666236548,-6.832264914053349e-16,0.0015826555297062373,1.3440006996152132,1.3455783570246145
1624632516.6087918,4.7713069774367734e-17,-2.5752756704931317e-16,5.76,4.95,2.6208311965092435e-07,-2.437982629999169e-06,1.3414634466171265,-0.015625,0.00341796875,-7.158313434580624e-16,0.0016533196666236548,-6.832264914053349e-16,0.0015826555297062373,1.3440006996152132,1.3455783570246145
1624632516.6087918,4.7713069774367734e-17,-2.5752756704931317e-16,5.76,4.95,2.6208311965092435e-07,-2.437982629999169e-06,1.3414634466171265,-0.015625,0.00341796875,-7.158313434580624e-16,0.0016533196666236548,-6.832264914053349e-16,0.0015826555297062373,1.3440006996152132,1.3455783570246145
1624632516.668792,4.829490861355166e-17,-2.601924092450305e-16,5.76,4.95,2.6208311965092435e-07,-2.437982629999169e-06,1.3414634466171265,-0.015625,0.00341796875,-6.735640996973866e-16,0.0016879769355883617,-6.79252967836222e-16,0.0015630212434313722,1.3440020260139016,1.3455795773297081
1624632516.668792,4.829490861355166e-17,-2.601924092450305e-16,5.76,4.95,2.6208311965092435e-07,-2.437982629999169e-06,1.3414634466171265,-0.015625,0.00341796875,-6.735640996973866e-16,0.0016879769355883617,-6.79252967836222e-16,0.0015630212434313722,1.3440020260139016,1.3455795773297081
1624632516.668792,4.829490861355166e-17,-2.601924092450305e-16,5.76,4.95,2.6208311965092435e-07,-2.437982629999169e-06,1.3414634466171265,-0.015625,0.00341796875,-6.735640996973866e-16,0.0016879769355883617,-6.79252967836222e-16,0.0015630212434313722,1.3440020260139016,1.3455795773297081
1624632516.668792,4.829490861355166e-17,-2.601924092450305e-16,5.76,4.95,2.6208311965092435e-07,-2.437982629999169e-06,1.3414634466171265,-0.01513671875,0.0087890625,-6.735640996973866e-16,0.0016879769355883617,-6.79252967836222e-16,0.0015630212434313722,1.3440020260139016,1.3455795773297081
1624632516.668792,4.829490861355166e-17,-2.601924092450305e-16,5.76,4.95,2.6208311965092435e-07,-2.437982629999169e-06,1.3414634466171265,-0.01513671875,0.0087890625,-6.735640996973866e-16,0.0016879769355883617,-6.79252967836222e-16,0.0015630212434313722,1.3440020260139016,1.3455795773297081
1624632516.728792,4.6196027147599185e-17,-2.635292319714755e-16,5.76,4.95,2.6208311965092435e-07,-2.437982629999169e-06,1.3414634466171265,-0.01513671875,0.0087890625,-7.006084776221364e-16,0.0015815460962872745,-6.803663941859977e-16,0.0014963000804201754,1.343997686799185,1.3455749140120126
1624632516.728792,4.6196027147599185e-17,-2.635292319714755e-16,5.76,4.95,2.6208311965092435e-07,-2.437982629999169e-06,1.3414634466171265,-0.01513671875,0.0087890625,-7.006084776221364e-16,0.0015815460962872745,-6.803663941859977e-16,0.0014963000804201754,1.343997686799185,1.3455749140120126
1624632516.728792,4.6196027147599185e-17,-2.635292319714755e-16,5.76,4.95,2.6208311965092435e-07,-2.437982629999169e-06,1.3414634466171265,-0.01513671875,0.0087890625,-7.006084776221364e-16,0.0015815460962872745,-6.803663941859977e-16,0.0014963000804201754,1.343997686799185,1.3455749140120126
1624632516.728792,4.6196027147599185e-17,-2.635292319714755e-16,5.76,4.94,2.6208311965092435e-07,-2.437982629999169e-06,1.3414634466171265,-0.01513671875,0.0087890625,-7.006084776221364e-16,0.0015815460962872745,-6.803663941859977e-16,0.0014963000804201754,1.343997686799185,1.3455749140120126
1624632516.728792,4.6196027147599185e-17,-2.635292319714755e-16,5.76,4.94,2.6208311965092435e-07,-2.437982629999169e-06,1.3414634466171265,-0.01513671875,0.0087890625,-7.006084776221364e-16,0.0015815460962872745,-6.803663941859977e-16,0.0014963000804201754,1.343997686799185,1.3455749140120126
1624632516.742792,4.535012931114844e-17,-2.659329546333208e-16,5.76,4.94,2.6208311965092435e-07,-2.437982629999169e-06,1.3414634466171265,-0.01513671875,0.0087890625,-6.908030797692488e-16,0.0017952624254767154,-6.81334998255913e-16,0.0015725701146527622,1.344029306971774,1.345535753167341
1624632516.742792,4.535012931114844e-17,-2.659329546333208e-16,5.76,4.94,2.6208311965092435e-07,-2.437982629999169e-06,1.3414634466171265,-0.01513671875,0.0087890625,-6.908030797692488e-16,0.0017952624254767154,-6.81334998255913e-16,0.0015725701146527622,1.344029306971774,1.345535753167341
1624632516.742792,4.535012931114844e-17,-2.659329546333208e-16,5.76,4.94,2.6208311965092435e-07,-2.437982629999169e-06,1.3414634466171265,-0.01513671875,0.0087890625,-6.908030797692488e-16,0.0017952624254767154,-6.81334998255913e-16,0.0015725701146527622,1.344029306971774,1.345535753167341
1624632516.742792,4.535012931114844e-17,-2.659329546333208e-16,5.76,4.94,2.6208311965092435e-07,-2.437982629999169e-06,1.4634146690368652,-0.01318359375,-0.00537109375,-6.908030797692488e-16,0.0017952624254767154,-6.81334998255913e-16,0.0015725701146527622,1.344029306971774,1.345535753167341
1624632516.742792,4.535012931114844e-17,-2.659329546333208e-16,5.76,4.94,2.6208311965092435e-07,-2.437982629999169e-06,1.4634146690368652,-0.01318359375,-0.00537109375,-6.908030797692488e-16,0.0017952624254767154,-6.81334998255913e-16,0.0015725701146527622,1.344029306971774,1.345535753167341
1624632516.788792,4.692102326256895e-17,-2.678413663418569e-16,5.76,4.94,2.6208311965092435e-07,-2.437982629999169e-06,1.4634146690368652,-0.01318359375,-0.00537109375,-6.590616606408792e-16,0.0017078959099518154,-6.762542700653302e-16,0.0015665861217339894,1.3440024616098092,1.3455214898463173
1624632516.788792,4.692102326256895e-17,-2.678413663418569e-16,5.76,4.94,2.6208311965092435e-07,-2.437982629999169e-06,1.4634146690368652,-0.01318359375,-0.00537109375,-6.590616606408792e-16,0.0017078959099518154,-6.762542700653302e-16,0.0015665861217339894,1.3440024616098092,1.3455214898463173
1624632516.788792,4.692102326256895e-17,-2.678413663418569e-16,5.76,4.94,2.6208311965092435e-07,-2.437982629999169e-06,1.4634146690368652,-0.01318359375,-0.00537109375,-6.590616606408792e-16,0.0017078959099518154,-6.762542700653302e-16,0.0015665861217339894,1.3440024616098092,1.3455214898463173
1624632516.788792,4.692102326256895e-17,-2.678413663418569e-16,5.75,4.95,2.6208311965092435e-07,-2.437982629999169e-06,1.4634146690368652,-0.01318359375,-0.00537109375,-6.590616606408792e-16,0.0017078959099518154,-6.762542700653302e-16,0.0015665861217339894,1.3440024616098092,1.3455214898463173
1624632516.788792,4.692102326256895e-17,-2.678413663418569e-16,5.75,4.95,2.6208311965092435e-07,-2.437982629999169e-06,1.4634146690368652,-0.01318359375,-0.00537109375,-6.590616606408792e-16,0.0017078959099518154,-6.762542700653302e-16,0.0015665861217339894,1.3440024616098092,1.3455214898463173
1624632516.8487918,4.581844839304083e-17,-2.705342022827382e-16,5.75,4.95,2.6208311965092435e-07,-2.437982629999169e-06,1.4634146690368652,-0.01318359375,-0.00537109375,-6.870579414545874e-16,0.0018095902884897707,-6.755387520825357e-16,0.001616958194157484,1.344004978790068,1.3455314921282304
1624632516.8487918,4.581844839304083e-17,-2.705342022827382e-16,5.75,4.95,2.6208311965092435e-07,-2.437982629999169e-06,1.4634146690368652,-0.01318359375,-0.00537109375,-6.870579414545874e-16,0.0018095902884897707,-6.755387520825357e-16,0.001616958194157484,1.344004978790068,1.3455314921282304
1624632516.8487918,4.581844839304083e-17,-2.705342022827382e-16,5.75,4.95,2.6208311965092435e-07,-2.437982629999169e-06,1.4634146690368652,-0.01318359375,-0.00537109375,-6.870579414545874e-16,0.0018095902884897707,-6.755387520825357e-16,0.001616958194157484,1.344004978790068,1.3455314921282304
1624632516.8487918,4.581844839304083e-17,-2.705342022827382e-16,5.75,4.95,2.6208311965092435e-07,-2.437982629999169e-06,1.4634146690368652,-0.01318359375,-0.00537109375,-6.870579414545874e-16,0.0018095902884897707,-6.755387520825357e-16,0.001616958194157484,1.344004978790068,1.3455314921282304
1624632516.8487918,4.581844839304083e-17,-2.705342022827382e-16,5.75,4.95,2.6208311965092435e-07,-2.437982629999169e-06,1.402438998222351,-0.0126953125,0.0107421875,-7.132338306414846e-16,0.0016958757871089812,-6.755387520825357e-16,0.001616958194157484,1.3440019839651318,1.3455314921282304
1624632516.908792,4.2449389700508264e-17,-2.739206105268041e-16,5.75,4.95,2.6208311965092435e-07,-2.437982629999169e-06,1.402438998222351,-0.0126953125,0.0107421875,-7.132338306414846e-16,0.0016958757871089812,-6.792093431732163e-16,0.0015819946211123508,1.3440019839651318,1.3455374542598568
1624632516.908792,4.2449389700508264e-17,-2.739206105268041e-16,5.75,4.95,2.6208311965092435e-07,-2.437982629999169e-06,1.402438998222351,-0.0126953125,0.0107421875,-7.132338306414846e-16,0.0016958757871089812,-6.792093431732163e-16,0.0015819946211123508,1.3440019839651318,1.3455374542598568
1624632516.908792,4.2449389700508264e-17,-2.739206105268041e-16,5.75,4.94,2.6208311965092435e-07,-2.437982629999169e-06,1.402438998222351,-0.0126953125,0.0107421875,-7.132338306414846e-16,0.0016958757871089812,-6.792093431732163e-16,0.0015819946211123508,1.3440019839651318,1.3455374542598568
1624632516.908792,4.2449389700508264e-17,-2.739206105268041e-16,5.75,4.94,2.6208311965092435e-07,-2.437982629999169e-06,1.402438998222351,-0.0126953125,0.0107421875,-7.132338306414846e-16,0.0016958757871089812,-6.792093431732163e-16,0.0015819946211123508,1.3440019839651318,1.3455374542598568
1624632516.908792,4.2449389700508264e-17,-2.739206105268041e-16,5.75,4.94,2.6208311965092435e-07,-2.437982629999169e-06,1.402438998222351,-0.0126953125,0.0107421875,-7.132338306414846e-16,0.0016958757871089812,-6.792093431732163e-16,0.0015819946211123508,1.3440019839651318,1.3455374542598568
1624632516.968792,4.2929592855190084e-17,-2.7658271388163037e-16,5.75,4.94,2.6208311965092435e-07,-2.437982629999169e-06,1.402438998222351,-0.0126953125,0.0107421875,-6.710182691925049e-16,0.0018168118288381925,-6.757459086653584e-16,0.0016172042354337564,1.3440063470171915,1.345544940763264
1624632516.968792,4.2929592855190084e-17,-2.7658271388163037e-16,5.75,4.94,2.6208311965092435e-07,-2.437982629999169e-06,1.402438998222351,-0.0126953125,0.0107421875,-6.710182691925049e-16,0.0018168118288381925,-6.757459086653584e-16,0.0016172042354337564,1.3440063470171915,1.345544940763264
1624632516.968792,4.2929592855190084e-17,-2.7658271388163037e-16,5.75,4.94,2.6208311965092435e-07,-2.437982629999169e-06,1.402438998222351,-0.0126953125,0.0107421875,-6.710182691925049e-16,0.0018168118288381925,-6.757459086653584e-16,0.0016172042354337564,1.3440063470171915,1.345544940763264
1624632516.968792,4.2929592855190084e-17,-2.7658271388163037e-16,5.75,4.94,2.6208311965092435e-07,-2.437982629999169e-06,1.402438998222351,-0.0126953125,0.0107421875,-6.710182691925049e-16,0.0018168118288381925,-6.757459086653584e-16,0.0016172042354337564,1.3440063470171915,1.345544940763264
1624632516.968792,4.2929592855190084e-17,-2.7658271388163037e-16,5.75,4.94,2.6208311965092435e-07,-2.437982629999169e-06,1.2804877758026123,-0.01416015625,0.01171875,-6.710182691925049e-16,0.0018168118288381925,-6.757459086653584e-16,0.0016172042354337564,1.3440063470171915,1.345544940763264
1624632516.968792,4.32756861543901e-17,-2.78501879904105e-16,5.75,4.94,2.6208311965092435e-07,-2.437982629999169e-06,1.2804877758026123,-0.01416015625,0.01171875,-6.710182691925049e-16,0.0018168118288381925,-6.750853175760102e-16,0.0016359525936271,1.3440063470171915,1.3454655869969772
1624632516.968792,4.32756861543901e-17,-2.78501879904105e-16,5.75,4.94,2.6208311965092435e-07,-2.437982629999169e-06,1.2804877758026123,-0.01416015625,0.01171875,-6.710182691925049e-16,0.0018168118288381925,-6.750853175760102e-16,0.0016359525936271,1.3440063470171915,1.3454655869969772
1624632516.968792,4.32756861543901e-17,-2.78501879904105e-16,5.75,4.94,2.6208311965092435e-07,-2.437982629999169e-06,1.2804877758026123,-0.01416015625,0.01171875,-6.710182691925049e-16,0.0018168118288381925,-6.750853175760102e-16,0.0016359525936271,1.3440063470171915,1.3454655869969772
1624632516.968792,4.32756861543901e-17,-2.78501879904105e-16,5.75,4.95,2.6208311965092435e-07,-2.437982629999169e-06,1.2804877758026123,-0.01416015625,0.01171875,-6.710182691925049e-16,0.0018168118288381925,-6.750853175760102e-16,0.0016359525936271,1.3440063470171915,1.3454655869969772
1624632516.968792,4.32756861543901e-17,-2.78501879904105e-16,5.75,4.95,2.6208311965092435e-07,-2.437982629999169e-06,1.2804877758026123,-0.01416015625,0.01171875,-6.710182691925049e-16,0.0018168118288381925,-6.750853175760102e-16,0.0016359525936271,1.3440063470171915,1.3454655869969772
1624632517.054792,4.257201984822175e-17,-2.812361982719255e-16,5.75,4.95,2.6208311965092435e-07,-2.437982629999169e-06,1.2804877758026123,-0.01416015625,0.01171875,-6.800548148750481e-16,0.0019298124038999121,-6.727059461855141e-16,0.001735961999343215,1.3440597421877818,1.3455565861574608
1624632517.054792,4.257201984822175e-17,-2.812361982719255e-16,5.75,4.95,2.6208311965092435e-07,-2.437982629999169e-06,1.2804877758026123,-0.01416015625,0.01171875,-6.800548148750481e-16,0.0019298124038999121,-6.727059461855141e-16,0.001735961999343215,1.3440597421877818,1.3455565861574608
1624632517.054792,4.257201984822175e-17,-2.812361982719255e-16,5.75,4.95,2.6208311965092435e-07,-2.437982629999169e-06,1.2804877758026123,-0.01416015625,0.01171875,-6.800548148750481e-16,0.0019298124038999121,-6.727059461855141e-16,0.001735961999343215,1.3440597421877818,1.3455565861574608
1624632517.054792,4.257201984822175e-17,-2.812361982719255e-16,5.75,4.95,2.6208311965092435e-07,-2.437982629999169e-06,1.3414634466171265,-0.0185546875,0.00244140625,-6.800548148750481e-16,0.0019298124038999121,-6.727059461855141e-16,0.001735961999343215,1.3440597421877818,1.3455565861574608
1624632517.054792,4.257201984822175e-17,-2.812361982719255e-16,5.75,4.95,2.6208311965092435e-07,-2.437982629999169e-06,1.3414634466171265,-0.0185546875,0.00244140625,-6.569716966021706e-16,0.0018589395340535097,-6.727059461855141e-16,0.001735961999343215,1.3440090286725985,1.3455565861574608
1624632517.0887918,4.370849822178493e-17,-2.833721658111969e-16,5.75,4.95,2.6208311965092435e-07,-2.437982629999169e-06,1.3414634466171265,-0.0185546875,0.00244140625,-6.569716966021706e-16,0.0018589395340535097,-6.690919269629498e-16,0.0017282420930009638,1.3440090286725985,1.3455279861329628
1624632517.0887918,4.370849822178493e-17,-2.833721658111969e-16,5.75,4.95,2.6208311965092435e-07,-2.437982629999169e-06,1.3414634466171265,-0.0185546875,0.00244140625,-6.569716966021706e-16,0.0018589395340535097,-6.690919269629498e-16,0.0017282420930009638,1.3440090286725985,1.3455279861329628
1624632517.0887918,4.370849822178493e-17,-2.833721658111969e-16,5.75,4.95,2.6208311965092435e-07,-2.437982629999169e-06,1.3414634466171265,-0.0185546875,0.00244140625,-6.569716966021706e-16,0.0018589395340535097,-6.690919269629498e-16,0.0017282420930009638,1.3440090286725985,1.3455279861329628
1624632517.0887918,4.370849822178493e-17,-2.833721658111969e-16,5.74,4.93,2.6208311965092435e-07,-2.437982629999169e-06,1.3414634466171265,-0.0185546875,0.00244140625,-6.569716966021706e-16,0.0018589395340535097,-6.690919269629498e-16,0.0017282420930009638,1.3440090286725985,1.3455279861329628
1624632517.0887918,4.370849822178493e-17,-2.833721658111969e-16,5.74,4.93,2.6208311965092435e-07,-2.437982629999169e-06,1.3414634466171265,-0.0185546875,0.00244140625,-6.85470876995826e-16,0.0018923550219615774,-6.690919269629498e-16,0.0017282420930009638,1.344010359088727,1.3455279861329628
1624632517.148792,4.2145544860770105e-17,-2.8627411755900094e-16,5.74,4.93,2.6208311965092435e-07,-2.437982629999169e-06,1.3414634466171265,-0.0185546875,0.00244140625,-6.85470876995826e-16,0.0018923550219615774,-6.694474341196668e-16,0.0017482935462206646,1.344010359088727,1.3455445006719902
1624632517.148792,4.2145544860770105e-17,-2.8627411755900094e-16,5.74,4.93,2.6208311965092435e-07,-2.437982629999169e-06,1.3414634466171265,-0.0185546875,0.00244140625,-6.85470876995826e-16,0.0018923550219615774,-6.694474341196668e-16,0.0017482935462206646,1.344010359088727,1.3455445006719902
1624632517.148792,4.2145544860770105e-17,-2.8627411755900094e-16,5.74,4.93,2.6208311965092435e-07,-2.437982629999169e-06,1.402438998222351,-0.009765625,0.0048828125,-6.85470876995826e-16,0.0018923550219615774,-6.694474341196668e-16,0.0017482935462206646,1.344010359088727,1.3455445006719902
1624632517.148792,4.2145544860770105e-17,-2.8627411755900094e-16,5.74,4.93,2.6208311965092435e-07,-2.437982629999169e-06,1.402438998222351,-0.009765625,0.0048828125,-6.85470876995826e-16,0.0018923550219615774,-6.694474341196668e-16,0.0017482935462206646,1.344010359088727,1.3455445006719902
1624632517.148792,4.2145544860770105e-17,-2.8627411755900094e-16,5.74,4.93,2.686352047476248e-07,-2.4989321900648065e-06,1.402438998222351,-0.009765625,0.0048828125,-7.117906461987236e-16,0.0017736594900794633,-6.694474341196668e-16,0.0017482935462206646,1.3440063871825967,1.3455445006719902
1624632517.208792,3.836530689401054e-17,-2.898434780756831e-16,5.74,4.93,2.686352047476248e-07,-2.4989321900648065e-06,1.402438998222351,-0.009765625,0.0048828125,-7.117906461987236e-16,0.0017736594900794633,-6.741269804141969e-16,0.0016955495575584293,1.3440063871825967,1.3455558550860196
1624632517.208792,3.836530689401054e-17,-2.898434780756831e-16,5.74,4.93,2.686352047476248e-07,-2.4989321900648065e-06,1.402438998222351,-0.009765625,0.0048828125,-7.117906461987236e-16,0.0017736594900794633,-6.741269804141969e-16,0.0016955495575584293,1.3440063871825967,1.3455558550860196
1624632517.208792,3.836530689401054e-17,-2.898434780756831e-16,5.74,4.93,2.686352047476248e-07,-2.4989321900648065e-06,1.402438998222351,-0.009765625,0.0048828125,-7.117906461987236e-16,0.0017736594900794633,-6.741269804141969e-16,0.0016955495575584293,1.3440063871825967,1.3455558550860196
1624632517.208792,3.836530689401054e-17,-2.898434780756831e-16,5.75,4.95,2.686352047476248e-07,-2.4989321900648065e-06,1.402438998222351,-0.009765625,0.0048828125,-7.117906461987236e-16,0.0017736594900794633,-6.741269804141969e-16,0.0016955495575584293,1.3440063871825967,1.3455558550860196
1624632517.208792,3.836530689401054e-17,-2.898434780756831e-16,5.75,4.95,2.686352047476248e-07,-2.4989321900648065e-06,1.402438998222351,-0.009765625,0.0048828125,-6.697560926330241e-16,0.001953715651436766,-6.741269804141969e-16,0.0016955495575584293,1.3440128888082628,1.3455558550860196
1624632517.268792,3.854300420576735e-17,-2.9265031140969515e-16,5.75,4.95,2.686352047476248e-07,-2.4989321900648065e-06,1.402438998222351,-0.009765625,0.0048828125,-6.697560926330241e-16,0.001953715651436766,-6.714854240664337e-16,0.0017402873777906931,1.3440128888082628,1.3455694357157242
1624632517.268792,3.854300420576735e-17,-2.9265031140969515e-16,5.75,4.95,2.6208311965092435e-07,-2.437982629999169e-06,1.402438998222351,-0.009765625,0.0048828125,-6.697560926330241e-16,0.001953715651436766,-6.714854240664337e-16,0.0017402873777906931,1.3440128888082628,1.3455694357157242
1624632517.268792,3.854300420576735e-17,-2.9265031140969515e-16,5.75,4.95,2.6208311965092435e-07,-2.437982629999169e-06,1.402438998222351,-0.00732421875,-0.00634765625,-6.697560926330241e-16,0.001953715651436766,-6.714854240664337e-16,0.0017402873777906931,1.3440128888082628,1.3455694357157242
1624632517.268792,3.854300420576735e-17,-2.9265031140969515e-16,5.75,4.95,2.6208311965092435e-07,-2.437982629999169e-06,1.402438998222351,-0.00732421875,-0.00634765625,-6.697560926330241e-16,0.001953715651436766,-6.714854240664337e-16,0.0017402873777906931,1.3440128888082628,1.3455694357157242
1624632517.268792,3.854300420576735e-17,-2.9265031140969515e-16,5.75,4.95,2.6208311965092435e-07,-2.437982629999169e-06,1.402438998222351,-0.00732421875,-0.00634765625,-6.970271585538936e-16,0.0018303115746070584,-6.714854240664337e-16,0.0017402873777906931,1.344008973532259,1.3455694357157242
1624632517.3287919,3.6128901967106107e-17,-2.9611604595487273e-16,5.75,4.95,2.6208311965092435e-07,-2.437982629999169e-06,1.402438998222351,-0.00732421875,-0.00634765625,-6.970271585538936e-16,0.0018303115746070584,-6.737881074455799e-16,0.0016979455562525717,1.344008973532259,1.3455774610615603
1624632517.3287919,3.6128901967106107e-17,-2.9611604595487273e-16,5.75,4.95,2.6208311965092435e-07,-2.437982629999169e-06,1.402438998222351,-0.00732421875,-0.00634765625,-6.970271585538936e-16,0.0018303115746070584,-6.737881074455799e-16,0.0016979455562525717,1.344008973532259,1.3455774610615603
1624632517.3287919,3.6128901967106107e-17,-2.9611604595487273e-16,5.75,4.95,2.6208311965092435e-07,-2.437982629999169e-06,1.402438998222351,-0.00732421875,-0.00634765625,-6.970271585538936e-16,0.0018303115746070584,-6.737881074455799e-16,0.0016979455562525717,1.344008973532259,1.3455774610615603
1624632517.3287919,3.6128901967106107e-17,-2.9611604595487273e-16,5.75,4.94,2.6208311965092435e-07,-2.437982629999169e-06,1.402438998222351,-0.00732421875,-0.00634765625,-6.970271585538936e-16,0.0018303115746070584,-6.737881074455799e-16,0.0016979455562525717,1.344008973532259,1.3455774610615603
1624632517.3287919,3.6128901967106107e-17,-2.9611604595487273e-16,5.75,4.94,2.6208311965092435e-07,-2.437982629999169e-06,1.402438998222351,-0.00732421875,-0.00634765625,-6.844800421148088e-16,0.0017551931467940114,-6.737881074455799e-16,0.0016979455562525717,1.3440394266311586,1.3455774610615603
1624632517.346792,3.525571589656396e-17,-2.986189332199601e-16,5.75,4.94,2.6208311965092435e-07,-2.437982629999169e-06,1.402438998222351,-0.00732421875,-0.00634765625,-6.844800421148088e-16,0.0017551931467940114,-6.748056954110525e-16,0.0016825349921500998,1.3440394266311586,1.3455449836199744
1624632517.346792,3.525571589656396e-17,-2.986189332199601e-16,5.75,4.94,2.6208311965092435e-07,-2.437982629999169e-06,1.402438998222351,-0.00732421875,-0.00634765625,-6.844800421148088e-16,0.0017551931467940114,-6.748056954110525e-16,0.0016825349921500998,1.3440394266311586,1.3455449836199744
1624632517.346792,3.525571589656396e-17,-2.986189332199601e-16,5.75,4.94,2.686352047476248e-07,-2.4989321900648065e-06,1.402438998222351,-0.00732421875,-0.00634765625,-6.844800421148088e-16,0.0017551931467940114,-6.748056954110525e-16,0.0016825349921500998,1.3440394266311586,1.3455449836199744
1624632517.346792,3.525571589656396e-17,-2.986189332199601e-16,5.75,4.94,2.686352047476248e-07,-2.4989321900648065e-06,1.3414634466171265,-0.0068359375,0.0087890625,-6.844800421148088e-16,0.0017551931467940114,-6.748056954110525e-16,0.0016825349921500998,1.3440394266311586,1.3455449836199744
1624632517.346792,3.525571589656396e-17,-2.986189332199601e-16,5.75,4.94,2.686352047476248e-07,-2.4989321900648065e-06,1.3414634466171265,-0.0068359375,0.0087890625,-6.557671973431909e-16,0.0016765215446928482,-6.748056954110525e-16,0.0016825349921500998,1.3440033120259431,1.3455449836199744
1624632517.388792,3.6620233935689795e-17,-3.006104685744698e-16,5.75,4.94,2.686352047476248e-07,-2.4989321900648065e-06,1.3414634466171265,-0.0068359375,0.0087890625,-6.557671973431909e-16,0.0016765215446928482,-6.707228932600795e-16,0.0016270712605296477,1.3440033120259431,1.3455250633638536
1624632517.388792,3.6620233935689795e-17,-3.006104685744698e-16,5.75,4.94,2.686352047476248e-07,-2.4989321900648065e-06,1.3414634466171265,-0.0068359375,0.0087890625,-6.557671973431909e-16,0.0016765215446928482,-6.707228932600795e-16,0.0016270712605296477,1.3440033120259431,1.3455250633638536
1624632517.388792,3.6620233935689795e-17,-3.006104685744698e-16,5.75,4.93,2.686352047476248e-07,-2.4989321900648065e-06,1.3414634466171265,-0.0068359375,0.0087890625,-6.557671973431909e-16,0.0016765215446928482,-6.707228932600795e-16,0.0016270712605296477,1.3440033120259431,1.3455250633638536
1624632517.388792,3.6620233935689795e-17,-3.006104685744698e-16,5.75,4.93,2.6208311965092435e-07,-2.437982629999169e-06,1.3414634466171265,-0.0068359375,0.0087890625,-6.557671973431909e-16,0.0016765215446928482,-6.707228932600795e-16,0.0016270712605296477,1.3440033120259431,1.3455250633638536
1624632517.4507918,3.5480661335474876e-17,-3.033860558090365e-16,5.75,4.93,2.6208311965092435e-07,-2.437982629999169e-06,1.3414634466171265,-0.0068359375,0.0087890625,-6.824938370190934e-16,0.0017095161908172066,-6.706233681649841e-16,0.0016091734943035681,1.3440057373792544,1.3455397381049732
1624632517.4507918,3.5480661335474876e-17,-3.033860558090365e-16,5.75,4.93,2.6208311965092435e-07,-2.437982629999169e-06,1.3414634466171265,-0.0068359375,0.0087890625,-6.824938370190934e-16,0.0017095161908172066,-6.706233681649841e-16,0.0016091734943035681,1.3440057373792544,1.3455397381049732
1624632517.4507918,3.5480661335474876e-17,-3.033860558090365e-16,5.75,4.93,2.6208311965092435e-07,-2.437982629999169e-06,1.3414634466171265,-0.0068359375,0.0087890625,-6.824938370190934e-16,0.0017095161908172066,-6.706233681649841e-16,0.0016091734943035681,1.3440057373792544,1.3455397381049732
1624632517.4507918,3.5480661335474876e-17,-3.033860558090365e-16,5.75,4.93,2.6208311965092435e-07,-2.437982629999169e-06,1.3414634466171265,-0.0068359375,0.0087890625,-6.824938370190934e-16,0.0017095161908172066,-6.706233681649841e-16,0.0016091734943035681,1.3440057373792544,1.3455397381049732
1624632517.4507918,3.5480661335474876e-17,-3.033860558090365e-16,5.75,4.93,2.6208311965092435e-07,-2.437982629999169e-06,1.3414634466171265,-0.02587890625,0.013671875,-6.824938370190934e-16,0.0017095161908172066,-6.706233681649841e-16,0.0016091734943035681,1.3440057373792544,1.3455397381049732
1624632517.508792,3.2007921735076894e-17,-3.068474504397974e-16,5.75,4.93,2.6208311965092435e-07,-2.437982629999169e-06,1.3414634466171265,-0.02587890625,0.013671875,-7.103251097176696e-16,0.0016054462875746158,-6.751835785607614e-16,0.0015437411320707564,1.343998529806624,1.3455388541782103
1624632517.508792,3.2007921735076894e-17,-3.068474504397974e-16,5.75,4.93,2.6208311965092435e-07,-2.437982629999169e-06,1.3414634466171265,-0.02587890625,0.013671875,-7.103251097176696e-16,0.0016054462875746158,-6.751835785607614e-16,0.0015437411320707564,1.343998529806624,1.3455388541782103
1624632517.508792,3.2007921735076894e-17,-3.068474504397974e-16,5.75,4.93,2.6208311965092435e-07,-2.437982629999169e-06,1.3414634466171265,-0.02587890625,0.013671875,-7.103251097176696e-16,0.0016054462875746158,-6.751835785607614e-16,0.0015437411320707564,1.343998529806624,1.3455388541782103
1624632517.508792,3.2007921735076894e-17,-3.068474504397974e-16,5.75,4.93,2.6208311965092435e-07,-2.437982629999169e-06,1.3414634466171265,-0.02587890625,0.013671875,-7.103251097176696e-16,0.0016054462875746158,-6.751835785607614e-16,0.0015437411320707564,1.343998529806624,1.3455388541782103
1624632517.508792,3.2007921735076894e-17,-3.068474504397974e-16,5.75,4.94,2.6208311965092435e-07,-2.437982629999169e-06,1.3414634466171265,-0.02587890625,0.013671875,-7.103251097176696e-16,0.0016054462875746158,-6.751835785607614e-16,0.0015437411320707564,1.343998529806624,1.3455388541782103
1624632517.5687919,3.243823204678388e-17,-3.0958384133370785e-16,5.75,4.94,2.6208311965092435e-07,-2.437982629999169e-06,1.3414634466171265,-0.02587890625,0.013671875,-6.681997705585068e-16,0.0017549778296943957,-6.72441818271961e-16,0.0015699608361759898,1.3440031236708798,1.3455426346388617
1624632517.5687919,3.243823204678388e-17,-3.0958384133370785e-16,5.75,4.94,2.6208311965092435e-07,-2.437982629999169e-06,1.3414634466171265,-0.02587890625,0.013671875,-6.681997705585068e-16,0.0017549778296943957,-6.72441818271961e-16,0.0015699608361759898,1.3440031236708798,1.3455426346388617
1624632517.5687919,3.243823204678388e-17,-3.0958384133370785e-16,5.75,4.94,2.6208311965092435e-07,-2.437982629999169e-06,1.3414634466171265,-0.02587890625,0.013671875,-6.681997705585068e-16,0.0017549778296943957,-6.72441818271961e-16,0.0015699608361759898,1.3440031236708798,1.3455426346388617
1624632517.5687919,3.243823204678388e-17,-3.0958384133370785e-16,5.75,4.94,2.6208311965092435e-07,-2.437982629999169e-06,1.402438998222351,-0.0146484375,0.0078125,-6.681997705585068e-16,0.0017549778296943957,-6.72441818271961e-16,0.0015699608361759898,1.3440031236708798,1.3455426346388617
1624632517.5687919,3.243823204678388e-17,-3.0958384133370785e-16,5.75,4.94,2.6208311965092435e-07,-2.437982629999169e-06,1.402438998222351,-0.0146484375,0.0078125,-6.681997705585068e-16,0.0017549778296943957,-6.72441818271961e-16,0.0015699608361759898,1.3440031236708798,1.3455426346388617
1624632517.5687919,3.274848255989952e-17,-3.1155734555391704e-16,5.75,4.94,2.6208311965092435e-07,-2.437982629999169e-06,1.402438998222351,-0.0146484375,0.0078125,-6.681997705585068e-16,0.0017549778296943957,-6.718496100129397e-16,0.0015850642169014239,1.3440031236708798,1.3454624330499425
1624632517.5687919,3.274848255989952e-17,-3.1155734555391704e-16,5.75,4.94,2.6208311965092435e-07,-2.437982629999169e-06,1.402438998222351,-0.0146484375,0.0078125,-6.681997705585068e-16,0.0017549778296943957,-6.718496100129397e-16,0.0015850642169014239,1.3440031236708798,1.3454624330499425
1624632517.5687919,3.274848255989952e-17,-3.1155734555391704e-16,5.75,4.94,2.6208311965092435e-07,-2.437982629999169e-06,1.402438998222351,-0.0146484375,0.0078125,-6.681997705585068e-16,0.0017549778296943957,-6.718496100129397e-16,0.0015850642169014239,1.3440031236708798,1.3454624330499425
1624632517.5687919,3.274848255989952e-17,-3.1155734555391704e-16,5.75,4.94,2.6208311965092435e-07,-2.437982629999169e-06,1.402438998222351,-0.0146484375,0.0078125,-6.681997705585068e-16,0.0017549778296943957,-6.718496100129397e-16,0.0015850642169014239,1.3440031236708798,1.3454624330499425
1624632517.5687919,3.274848255989952e-17,-3.1155734555391704e-16,5.76,4.94,2.6208311965092435e-07,-2.437982629999169e-06,1.402438998222351,-0.0146484375,0.0078125,-6.681997705585068e-16,0.0017549778296943957,-6.718496100129397e-16,0.0015850642169014239,1.3440031236708798,1.3454624330499425
1624632517.638792,3.124809569678828e-17,-3.143381104743053e-16,5.76,4.94,2.6208311965092435e-07,-2.437982629999169e-06,1.402438998222351,-0.0146484375,0.0078125,-6.8858783351839e-16,0.0015460631166712363,-6.724138872234243e-16,0.001530685453264809,1.34401292076812,1.3455004369652275
1624632517.638792,3.124809569678828e-17,-3.143381104743053e-16,5.76,4.94,2.6208311965092435e-07,-2.437982629999169e-06,1.402438998222351,-0.0146484375,0.0078125,-6.8858783351839e-16,0.0015460631166712363,-6.724138872234243e-16,0.001530685453264809,1.34401292076812,1.3455004369652275
1624632517.638792,3.124809569678828e-17,-3.143381104743053e-16,5.76,4.94,2.6208311965092435e-07,-2.437982629999169e-06,1.402438998222351,-0.0146484375,0.0078125,-6.8858783351839e-16,0.0015460631166712363,-6.724138872234243e-16,0.001530685453264809,1.34401292076812,1.3455004369652275
1624632517.638792,3.124809569678828e-17,-3.143381104743053e-16,5.76,4.94,2.6208311965092435e-07,-2.437982629999169e-06,1.402438998222351,-0.02294921875,0.00927734375,-6.8858783351839e-16,0.0015460631166712363,-6.724138872234243e-16,0.001530685453264809,1.34401292076812,1.3455004369652275
1624632517.638792,3.124809569678828e-17,-3.143381104743053e-16,5.76,4.94,2.6208311965092435e-07,-2.437982629999169e-06,1.402438998222351,-0.02294921875,0.00927734375,-6.8858783351839e-16,0.0015460631166712363,-6.724138872234243e-16,0.001530685453264809,1.34401292076812,1.3455004369652275
1624632517.688792,3.2586658380427517e-17,-3.165509304768945e-16,5.76,4.94,2.6208311965092435e-07,-2.437982629999169e-06,1.402438998222351,-0.02294921875,0.00927734375,-6.541874524295068e-16,0.0014647744208863892,-6.68304432290533e-16,0.0014560217167737493,1.343992968561645,1.3454875301778124
1624632517.688792,3.2586658380427517e-17,-3.165509304768945e-16,5.76,4.94,2.6208311965092435e-07,-2.437982629999169e-06,1.402438998222351,-0.02294921875,0.00927734375,-6.541874524295068e-16,0.0014647744208863892,-6.68304432290533e-16,0.0014560217167737493,1.343992968561645,1.3454875301778124
1624632517.688792,3.2586658380427517e-17,-3.165509304768945e-16,5.76,4.94,2.6208311965092435e-07,-2.437982629999169e-06,1.402438998222351,-0.02294921875,0.00927734375,-6.541874524295068e-16,0.0014647744208863892,-6.68304432290533e-16,0.0014560217167737493,1.343992968561645,1.3454875301778124
1624632517.688792,3.2586658380427517e-17,-3.165509304768945e-16,5.76,4.94,2.6208311965092435e-07,-2.437982629999169e-06,1.402438998222351,-0.02294921875,0.00927734375,-6.541874524295068e-16,0.0014647744208863892,-6.68304432290533e-16,0.0014560217167737493,1.343992968561645,1.3454875301778124
1624632517.688792,3.2586658380427517e-17,-3.165509304768945e-16,5.77,4.96,2.6208311965092435e-07,-2.437982629999169e-06,1.402438998222351,-0.02294921875,0.00927734375,-6.541874524295068e-16,0.0014647744208863892,-6.68304432290533e-16,0.0014560217167737493,1.343992968561645,1.3454875301778124
1624632517.748792,3.1235492835472734e-17,-3.195239473100748e-16,5.77,4.96,2.6208311965092435e-07,-2.437982629999169e-06,1.402438998222351,-0.02294921875,0.00927734375,-6.826610945710484e-16,0.0018027517612601417,-6.689203940706339e-16,0.0015548277115701138,1.3440020582078738,1.3454962052664554
1624632517.748792,3.1235492835472734e-17,-3.195239473100748e-16,5.77,4.96,2.6208311965092435e-07,-2.437982629999169e-06,1.402438998222351,-0.02294921875,0.00927734375,-6.826610945710484e-16,0.0018027517612601417,-6.689203940706339e-16,0.0015548277115701138,1.3440020582078738,1.3454962052664554
1624632517.748792,3.1235492835472734e-17,-3.195239473100748e-16,5.77,4.96,2.6208311965092435e-07,-2.437982629999169e-06,1.402438998222351,-0.02294921875,0.00927734375,-6.826610945710484e-16,0.0018027517612601417,-6.689203940706339e-16,0.0015548277115701138,1.3440020582078738,1.3454962052664554
1624632517.748792,3.1235492835472734e-17,-3.195239473100748e-16,5.77,4.96,2.6208311965092435e-07,-2.437982629999169e-06,1.402438998222351,-0.01708984375,0.00537109375,-6.826610945710484e-16,0.0018027517612601417,-6.689203940706339e-16,0.0015548277115701138,1.3440020582078738,1.3454962052664554
1624632517.748792,3.1235492835472734e-17,-3.195239473100748e-16,5.77,4.96,2.6208311965092435e-07,-2.437982629999169e-06,1.402438998222351,-0.01708984375,0.00537109375,-6.826610945710484e-16,0.0018027517612601417,-6.689203940706339e-16,0.0015548277115701138,1.3440020582078738,1.3454962052664554
1624632517.8087919,2.7672168596162268e-17,-3.2315761154408655e-16,5.77,4.96,2.5584304808035085e-07,-2.3799352675268892e-06,1.402438998222351,-0.01708984375,0.00537109375,-7.091283256097782e-16,0.0016895841083888463,-6.738348887527943e-16,0.0015418983514504942,1.3440005422303152,1.345502182981647
1624632517.8087919,2.7672168596162268e-17,-3.2315761154408655e-16,5.77,4.96,2.5584304808035085e-07,-2.3799352675268892e-06,1.402438998222351,-0.01708984375,0.00537109375,-7.091283256097782e-16,0.0016895841083888463,-6.738348887527943e-16,0.0015418983514504942,1.3440005422303152,1.345502182981647
1624632517.8087919,2.7672168596162268e-17,-3.2315761154408655e-16,5.77,4.96,2.5584304808035085e-07,-2.3799352675268892e-06,1.402438998222351,-0.01708984375,0.00537109375,-7.091283256097782e-16,0.0016895841083888463,-6.738348887527943e-16,0.0015418983514504942,1.3440005422303152,1.345502182981647
1624632517.8087919,2.7672168596162268e-17,-3.2315761154408655e-16,5.77,4.94,2.5584304808035085e-07,-2.3799352675268892e-06,1.402438998222351,-0.01708984375,0.00537109375,-7.091283256097782e-16,0.0016895841083888463,-6.738348887527943e-16,0.0015418983514504942,1.3440005422303152,1.345502182981647
1624632517.8087919,2.7672168596162268e-17,-3.2315761154408655e-16,5.77,4.94,2.5584304808035085e-07,-2.3799352675268892e-06,1.402438998222351,-0.01708984375,0.00537109375,-7.091283256097782e-16,0.0016895841083888463,-6.738348887527943e-16,0.0015418983514504942,1.3440005422303152,1.345502182981647
1624632517.8687918,2.809956258268896e-17,-3.260167902438414e-16,5.77,4.94,2.5584304808035085e-07,-2.3799352675268892e-06,1.402438998222351,-0.01708984375,0.00537109375,-6.672097369428174e-16,0.0017516935687382912,-6.713587087343054e-16,0.0015668591633836184,1.3440036591319158,1.3455087231425964
1624632517.8687918,2.809956258268896e-17,-3.260167902438414e-16,5.77,4.94,2.6208311965092435e-07,-2.437982629999169e-06,1.402438998222351,-0.01708984375,0.00537109375,-6.672097369428174e-16,0.0017516935687382912,-6.713587087343054e-16,0.0015668591633836184,1.3440036591319158,1.3455087231425964
1624632517.8687918,2.809956258268896e-17,-3.260167902438414e-16,5.77,4.94,2.6208311965092435e-07,-2.437982629999169e-06,1.402438998222351,-0.01708984375,0.00537109375,-6.672097369428174e-16,0.0017516935687382912,-6.713587087343054e-16,0.0015668591633836184,1.3440036591319158,1.3455087231425964
1624632517.8687918,2.809956258268896e-17,-3.260167902438414e-16,5.77,4.94,2.6208311965092435e-07,-2.437982629999169e-06,1.402438998222351,-0.01708984375,0.00537109375,-6.672097369428174e-16,0.0017516935687382912,-6.713587087343054e-16,0.0015668591633836184,1.3440036591319158,1.3455087231425964
1624632517.8687918,2.809956258268896e-17,-3.260167902438414e-16,5.77,4.94,2.6208311965092435e-07,-2.437982629999169e-06,1.3414634466171265,-0.01953125,0.0,-6.672097369428174e-16,0.0017516935687382912,-6.713587087343054e-16,0.0015668591633836184,1.3440036591319158,1.3455087231425964
1624632517.8687918,2.840636729346063e-17,-3.280698414828264e-16,5.77,4.94,2.6208311965092435e-07,-2.437982629999169e-06,1.3414634466171265,-0.01953125,0.0,-6.672097369428174e-16,0.0017516935687382912,-6.70772984339635e-16,0.0015815278440858803,1.3440036591319158,1.3454310569039607
1624632517.8687918,2.840636729346063e-17,-3.280698414828264e-16,5.77,4.94,2.6208311965092435e-07,-2.437982629999169e-06,1.3414634466171265,-0.01953125,0.0,-6.672097369428174e-16,0.0017516935687382912,-6.70772984339635e-16,0.0015815278440858803,1.3440036591319158,1.3454310569039607
1624632517.8687918,2.840636729346063e-17,-3.280698414828264e-16,5.77,4.94,2.6208311965092435e-07,-2.437982629999169e-06,1.3414634466171265,-0.01953125,0.0,-6.672097369428174e-16,0.0017516935687382912,-6.70772984339635e-16,0.0015815278440858803,1.3440036591319158,1.3454310569039607
1624632517.8687918,2.840636729346063e-17,-3.280698414828264e-16,5.77,4.94,2.6208311965092435e-07,-2.437982629999169e-06,1.3414634466171265,-0.01953125,0.0,-6.672097369428174e-16,0.0017516935687382912,-6.70772984339635e-16,0.0015815278440858803,1.3440036591319158,1.3454310569039607
1624632517.8687918,2.840636729346063e-17,-3.280698414828264e-16,5.77,4.94,2.6208311965092435e-07,-2.437982629999169e-06,1.3414634466171265,-0.01953125,0.0,-6.672097369428174e-16,0.0017516935687382912,-6.70772984339635e-16,0.0015815278440858803,1.3440036591319158,1.3454310569039607
1624632517.9507918,2.7522090068924196e-17,-3.309385111510976e-16,5.77,4.94,2.6208311965092435e-07,-2.437982629999169e-06,1.3414634466171265,-0.01953125,0.0,-6.793602269673173e-16,0.001765989540244646,-6.701302902150139e-16,0.0016303960351639452,1.3440430342747105,1.3455065244172462
1624632517.9507918,2.7522090068924196e-17,-3.309385111510976e-16,5.77,4.94,2.6208311965092435e-07,-2.437982629999169e-06,1.3414634466171265,-0.01953125,0.0,-6.793602269673173e-16,0.001765989540244646,-6.701302902150139e-16,0.0016303960351639452,1.3440430342747105,1.3455065244172462
1624632517.9507918,2.7522090068924196e-17,-3.309385111510976e-16,5.77,4.94,2.6208311965092435e-07,-2.437982629999169e-06,1.3414634466171265,-0.01953125,0.0,-6.793602269673173e-16,0.001765989540244646,-6.701302902150139e-16,0.0016303960351639452,1.3440430342747105,1.3455065244172462
1624632517.9507918,2.7522090068924196e-17,-3.309385111510976e-16,5.77,4.94,2.686352047476248e-07,-2.4989321900648065e-06,1.3414634466171265,-0.015625,0.01318359375,-6.793602269673173e-16,0.001765989540244646,-6.701302902150139e-16,0.0016303960351639452,1.3440430342747105,1.3455065244172462
1624632517.9507918,2.7522090068924196e-17,-3.309385111510976e-16,5.77,4.94,2.686352047476248e-07,-2.4989321900648065e-06,1.3414634466171265,-0.015625,0.01318359375,-6.793602269673173e-16,0.001765989540244646,-6.701302902150139e-16,0.0016303960351639452,1.3440430342747105,1.3455065244172462
1624632517.988792,2.876511472966556e-17,-3.33192102761023e-16,5.77,4.94,2.686352047476248e-07,-2.4989321900648065e-06,1.3414634466171265,-0.015625,0.01318359375,-6.535784906727872e-16,0.0016939833472003941,-6.667150938015705e-16,0.0016019464607713015,1.3440022370195235,1.3454822295588065
1624632517.988792,2.876511472966556e-17,-3.33192102761023e-16,5.77,4.94,2.686352047476248e-07,-2.4989321900648065e-06,1.3414634466171265,-0.015625,0.01318359375,-6.535784906727872e-16,0.0016939833472003941,-6.667150938015705e-16,0.0016019464607713015,1.3440022370195235,1.3454822295588065
1624632517.988792,2.876511472966556e-17,-3.33192102761023e-16,5.77,4.94,2.686352047476248e-07,-2.4989321900648065e-06,1.3414634466171265,-0.015625,0.01318359375,-6.535784906727872e-16,0.0016939833472003941,-6.667150938015705e-16,0.0016019464607713015,1.3440022370195235,1.3454822295588065
1624632517.988792,2.876511472966556e-17,-3.33192102761023e-16,5.76,4.93,2.6208311965092435e-07,-2.437982629999169e-06,1.3414634466171265,-0.015625,0.01318359375,-6.535784906727872e-16,0.0016939833472003941,-6.667150938015705e-16,0.0016019464607713015,1.3440022370195235,1.3454822295588065
1624632517.988792,2.876511472966556e-17,-3.33192102761023e-16,5.76,4.93,2.6208311965092435e-07,-2.437982629999169e-06,1.3414634466171265,-0.015625,0.01318359375,-6.535784906727872e-16,0.0016939833472003941,-6.667150938015705e-16,0.0016019464607713015,1.3440022370195235,1.3454822295588065
1624632518.054792,2.768632719302155e-17,-3.3620794040705304e-16,5.76,4.93,2.6208311965092435e-07,-2.437982629999169e-06,1.3414634466171265,-0.015625,0.01318359375,-6.777404613497274e-16,0.0020760344778998404,-6.668734278490198e-16,0.001764038676267658,1.3440254362913755,1.345521983408359
1624632518.054792,2.768632719302155e-17,-3.3620794040705304e-16,5.76,4.93,2.6208311965092435e-07,-2.437982629999169e-06,1.3414634466171265,-0.015625,0.01318359375,-6.777404613497274e-16,0.0020760344778998404,-6.668734278490198e-16,0.001764038676267658,1.3440254362913755,1.345521983408359
1624632518.054792,2.768632719302155e-17,-3.3620794040705304e-16,5.76,4.93,2.6208311965092435e-07,-2.437982629999169e-06,1.4634146690368652,-0.01513671875,-0.00048828125,-6.777404613497274e-16,0.0020760344778998404,-6.668734278490198e-16,0.001764038676267658,1.3440254362913755,1.345521983408359
1624632518.054792,2.768632719302155e-17,-3.3620794040705304e-16,5.76,4.93,2.6208311965092435e-07,-2.437982629999169e-06,1.4634146690368652,-0.01513671875,-0.00048828125,-6.777404613497274e-16,0.0020760344778998404,-6.668734278490198e-16,0.001764038676267658,1.3440254362913755,1.345521983408359
1624632518.054792,2.768632719302155e-17,-3.3620794040705304e-16,5.76,4.93,2.5584304808035085e-07,-2.3799352675268892e-06,1.4634146690368652,-0.01513671875,-0.00048828125,-7.086284228370862e-16,0.001958127312006335,-6.668734278490198e-16,0.001764038676267658,1.344012670378877,1.345521983408359
1624632518.1087918,2.404145810625836e-17,-3.398638386076899e-16,5.76,4.93,2.5584304808035085e-07,-2.3799352675268892e-06,1.4634146690368652,-0.01513671875,-0.00048828125,-7.086284228370862e-16,0.001958127312006335,-6.668734278490198e-16,0.001764038676267658,1.344012670378877,1.345521983408359
1624632518.1087918,2.404145810625836e-17,-3.398638386076899e-16,5.76,4.93,2.5584304808035085e-07,-2.3799352675268892e-06,1.4634146690368652,-0.01513671875,-0.00048828125,-7.086284228370862e-16,0.001958127312006335,-6.723316720740952e-16,0.0017724380467180423,1.344012670378877,1.345529378480607
1624632518.1087918,2.404145810625836e-17,-3.398638386076899e-16,5.76,4.93,2.5584304808035085e-07,-2.3799352675268892e-06,1.4634146690368652,-0.01513671875,-0.00048828125,-7.086284228370862e-16,0.001958127312006335,-6.723316720740952e-16,0.0017724380467180423,1.344012670378877,1.345529378480607
1624632518.1087918,2.404145810625836e-17,-3.398638386076899e-16,5.76,4.92,2.5584304808035085e-07,-2.3799352675268892e-06,1.4634146690368652,-0.01513671875,-0.00048828125,-7.086284228370862e-16,0.001958127312006335,-6.723316720740952e-16,0.0017724380467180423,1.344012670378877,1.345529378480607
1624632518.1087918,2.404145810625836e-17,-3.398638386076899e-16,5.76,4.92,2.5584304808035085e-07,-2.3799352675268892e-06,1.4634146690368652,-0.01513671875,-0.00048828125,-7.086284228370862e-16,0.001958127312006335,-6.723316720740952e-16,0.0017724380467180423,1.344012670378877,1.345529378480607
1624632518.168792,2.4393669038826317e-17,-3.427513024650053e-16,5.76,4.92,2.5584304808035085e-07,-2.3799352675268892e-06,1.4634146690368652,-0.01513671875,-0.00048828125,-6.667839561268962e-16,0.0017716518378982796,-6.723316720740952e-16,0.0017724380467180423,1.344007384833834,1.345529378480607
1624632518.168792,2.4393669038826317e-17,-3.427513024650053e-16,5.76,4.92,2.6208311965092435e-07,-2.437982629999169e-06,1.4634146690368652,-0.01513671875,-0.00048828125,-6.667839561268962e-16,0.0017716518378982796,-6.723316720740952e-16,0.0017724380467180423,1.344007384833834,1.345529378480607
1624632518.168792,2.4393669038826317e-17,-3.427513024650053e-16,5.76,4.92,2.6208311965092435e-07,-2.437982629999169e-06,1.3414634466171265,-0.01318359375,0.00341796875,-6.667839561268962e-16,0.0017716518378982796,-6.723316720740952e-16,0.0017724380467180423,1.344007384833834,1.345529378480607
1624632518.168792,2.4393669038826317e-17,-3.427513024650053e-16,5.76,4.92,2.6208311965092435e-07,-2.437982629999169e-06,1.3414634466171265,-0.01318359375,0.00341796875,-6.667839561268962e-16,0.0017716518378982796,-6.723316720740952e-16,0.0017724380467180423,1.344007384833834,1.345529378480607
1624632518.168792,2.4393669038826317e-17,-3.427513024650053e-16,5.76,4.92,2.6208311965092435e-07,-2.437982629999169e-06,1.3414634466171265,-0.01318359375,0.00341796875,-6.667839561268962e-16,0.0017716518378982796,-6.702161271215036e-16,0.0017078462789255021,1.344007384833834,1.3455404699616056
1624632518.168792,2.4646713415675517e-17,-3.4482639405785285e-16,5.76,4.92,2.6208311965092435e-07,-2.437982629999169e-06,1.3414634466171265,-0.01318359375,0.00341796875,-6.667839561268962e-16,0.0017716518378982796,-6.702161271215036e-16,0.0017078462789255021,1.344007384833834,1.3455404699616056
1624632518.168792,2.4646713415675517e-17,-3.4482639405785285e-16,5.76,4.92,2.6208311965092435e-07,-2.437982629999169e-06,1.3414634466171265,-0.01318359375,0.00341796875,-6.667839561268962e-16,0.0017716518378982796,-6.702161271215036e-16,0.0017078462789255021,1.344007384833834,1.3455404699616056
1624632518.168792,2.4646713415675517e-17,-3.4482639405785285e-16,5.76,4.92,2.6208311965092435e-07,-2.437982629999169e-06,1.3414634466171265,-0.01318359375,0.00341796875,-6.667839561268962e-16,0.0017716518378982796,-6.702161271215036e-16,0.0017078462789255021,1.344007384833834,1.3455404699616056
1624632518.168792,2.4646713415675517e-17,-3.4482639405785285e-16,5.75,4.91,2.6208311965092435e-07,-2.437982629999169e-06,1.3414634466171265,-0.01318359375,0.00341796875,-6.667839561268962e-16,0.0017716518378982796,-6.702161271215036e-16,0.0017078462789255021,1.344007384833834,1.3455404699616056
1624632518.168792,2.4646713415675517e-17,-3.4482639405785285e-16,5.75,4.91,2.6208311965092435e-07,-2.437982629999169e-06,1.3414634466171265,-0.01318359375,0.00341796875,-6.667839561268962e-16,0.0017716518378982796,-6.697325144893499e-16,0.001687337553564404,1.344007384833834,1.3454581595741928
1624632518.242792,2.332039743209782e-17,-3.4771058592268897e-16,5.75,4.91,2.6208311965092435e-07,-2.437982629999169e-06,1.3414634466171265,-0.01318359375,0.00341796875,-6.845285062705892e-16,0.0019159402460687057,-6.697325144893499e-16,0.001687337553564404,1.344036602115426,1.3454581595741928
1624632518.242792,2.332039743209782e-17,-3.4771058592268897e-16,5.75,4.91,2.6208311965092435e-07,-2.437982629999169e-06,1.3414634466171265,-0.01318359375,0.00341796875,-6.845285062705892e-16,0.0019159402460687057,-6.697325144893499e-16,0.001687337553564404,1.344036602115426,1.3454581595741928
1624632518.242792,2.332039743209782e-17,-3.4771058592268897e-16,5.75,4.91,2.6208311965092435e-07,-2.437982629999169e-06,1.3414634466171265,-0.01318359375,0.00341796875,-6.845285062705892e-16,0.0019159402460687057,-6.697325144893499e-16,0.001687337553564404,1.344036602115426,1.3454581595741928
1624632518.242792,2.332039743209782e-17,-3.4771058592268897e-16,5.75,4.91,2.6208311965092435e-07,-2.437982629999169e-06,1.402438998222351,-0.0087890625,0.0107421875,-6.845285062705892e-16,0.0019159402460687057,-6.704375596398352e-16,0.0017518859377513153,1.344036602115426,1.3455215216841991
1624632518.242792,2.332039743209782e-17,-3.4771058592268897e-16,5.75,4.91,2.6208311965092435e-07,-2.437982629999169e-06,1.402438998222351,-0.0087890625,0.0107421875,-6.527195813311624e-16,0.001821660892800203,-6.704375596398352e-16,0.0017518859377513153,1.3440081197645999,1.3455215216841991
1624632518.289312,2.4660225630981072e-17,-3.5000034487517317e-16,5.75,4.91,2.6208311965092435e-07,-2.437982629999169e-06,1.402438998222351,-0.0087890625,0.0107421875,-6.527195813311624e-16,0.001821660892800203,-6.704375596398352e-16,0.0017518859377513153,1.3440081197645999,1.3455215216841991
1624632518.289312,2.4660225630981072e-17,-3.5000034487517317e-16,5.75,4.91,2.6208311965092435e-07,-2.437982629999169e-06,1.402438998222351,-0.0087890625,0.0107421875,-6.527195813311624e-16,0.001821660892800203,-6.704375596398352e-16,0.0017518859377513153,1.3440081197645999,1.3455215216841991
1624632518.289312,2.4660225630981072e-17,-3.5000034487517317e-16,5.75,4.91,2.6208311965092435e-07,-2.437982629999169e-06,1.402438998222351,-0.0087890625,0.0107421875,-6.527195813311624e-16,0.001821660892800203,-6.704375596398352e-16,0.0017518859377513153,1.3440081197645999,1.3455215216841991
1624632518.289312,2.4660225630981072e-17,-3.5000034487517317e-16,5.74,4.9,2.6208311965092435e-07,-2.437982629999169e-06,1.402438998222351,-0.0087890625,0.0107421875,-6.81126083754942e-16,0.0018688066931562333,-6.667998875509798e-16,0.0017250492134155634,1.3440087409463526,1.3455156029279185
1624632518.289312,2.4660225630981072e-17,-3.5000034487517317e-16,5.74,4.9,2.6208311965092435e-07,-2.437982629999169e-06,1.402438998222351,-0.0087890625,0.0107421875,-6.81126083754942e-16,0.0018688066931562333,-6.667998875509798e-16,0.0017250492134155634,1.3440087409463526,1.3455156029279185
1624632518.3493118,2.3348474552490148e-17,-3.530433084843203e-16,5.74,4.9,2.6208311965092435e-07,-2.437982629999169e-06,1.402438998222351,-0.0087890625,0.0107421875,-6.81126083754942e-16,0.0018688066931562333,-6.667998875509798e-16,0.0017250492134155634,1.3440087409463526,1.3455156029279185
1624632518.3493118,2.3348474552490148e-17,-3.530433084843203e-16,5.74,4.9,2.6208311965092435e-07,-2.437982629999169e-06,1.402438998222351,-0.0087890625,0.0107421875,-6.81126083754942e-16,0.0018688066931562333,-6.667998875509798e-16,0.0017250492134155634,1.3440087409463526,1.3455156029279185
1624632518.3493118,2.3348474552490148e-17,-3.530433084843203e-16,5.74,4.9,2.6208311965092435e-07,-2.437982629999169e-06,1.402438998222351,-0.0087890625,0.0107421875,-6.81126083754942e-16,0.0018688066931562333,-6.667998875509798e-16,0.0017250492134155634,1.3440087409463526,1.3455156029279185
1624632518.3493118,2.3348474552490148e-17,-3.530433084843203e-16,5.74,4.9,2.6208311965092435e-07,-2.437982629999169e-06,1.3414634466171265,-0.01318359375,0.01025390625,-6.81126083754942e-16,0.0018688066931562333,-6.678191229172909e-16,0.0017325834711482998,1.3440087409463526,1.3455322494394966
1624632518.3493118,2.3348474552490148e-17,-3.530433084843203e-16,5.74,4.9,2.6208311965092435e-07,-2.437982629999169e-06,1.3414634466171265,-0.01318359375,0.01025390625,-6.81126083754942e-16,0.0018688066931562333,-6.678191229172909e-16,0.0017325834711482998,1.3440087409463526,1.3455322494394966
1624632518.409312,1.9851494427258886e-17,-3.567391085721682e-16,5.74,4.9,2.6208311965092435e-07,-2.437982629999169e-06,1.3414634466171265,-0.01318359375,0.01025390625,-7.076650119968209e-16,0.0017513268014155104,-6.678191229172909e-16,0.0017325834711482998,1.3440050790067657,1.3455322494394966
1624632518.409312,1.9851494427258886e-17,-3.567391085721682e-16,5.74,4.9,2.6208311965092435e-07,-2.437982629999169e-06,1.3414634466171265,-0.01318359375,0.01025390625,-7.076650119968209e-16,0.0017513268014155104,-6.678191229172909e-16,0.0017325834711482998,1.3440050790067657,1.3455322494394966
1624632518.409312,1.9851494427258886e-17,-3.567391085721682e-16,5.74,4.9,2.6208311965092435e-07,-2.437982629999169e-06,1.3414634466171265,-0.01318359375,0.01025390625,-7.076650119968209e-16,0.0017513268014155104,-6.730862528695021e-16,0.0016744424105564874,1.3440050790067657,1.345543155253358
1624632518.409312,1.9851494427258886e-17,-3.567391085721682e-16,5.74,4.9,2.6208311965092435e-07,-2.437982629999169e-06,1.3414634466171265,-0.01318359375,0.01025390625,-7.076650119968209e-16,0.0017513268014155104,-6.730862528695021e-16,0.0016744424105564874,1.3440050790067657,1.345543155253358
1624632518.409312,1.9851494427258886e-17,-3.567391085721682e-16,5.74,4.9,2.6208311965092435e-07,-2.437982629999169e-06,1.3414634466171265,-0.01318359375,0.01025390625,-7.076650119968209e-16,0.0017513268014155104,-6.730862528695021e-16,0.0016744424105564874,1.3440050790067657,1.345543155253358
1624632518.469312,2.037845475910191e-17,-3.596522188006182e-16,5.74,4.9,2.6208311965092435e-07,-2.437982629999169e-06,1.3414634466171265,-0.01318359375,0.01025390625,-6.657774639997954e-16,0.0018695784759422526,-6.730862528695021e-16,0.0016744424105564874,1.3440091150569904,1.345543155253358
1624632518.469312,2.037845475910191e-17,-3.596522188006182e-16,5.74,4.9,2.6208311965092435e-07,-2.437982629999169e-06,1.3414634466171265,-0.01318359375,0.01025390625,-6.657774639997954e-16,0.0018695784759422526,-6.730862528695021e-16,0.0016744424105564874,1.3440091150569904,1.345543155253358
1624632518.469312,2.037845475910191e-17,-3.596522188006182e-16,5.74,4.9,2.6208311965092435e-07,-2.437982629999169e-06,1.3414634466171265,-0.01318359375,0.01025390625,-6.657774639997954e-16,0.0018695784759422526,-6.730862528695021e-16,0.0016744424105564874,1.3440091150569904,1.345543155253358
1624632518.469312,2.037845475910191e-17,-3.596522188006182e-16,5.74,4.9,2.6208311965092435e-07,-2.437982629999169e-06,1.4634146690368652,-0.013671875,-0.0009765625,-6.657774639997954e-16,0.0018695784759422526,-6.708886437507625e-16,0.0016917054200006817,1.3440091150569904,1.3455542265199787
1624632518.469312,2.037845475910191e-17,-3.596522188006182e-16,5.74,4.9,2.6208311965092435e-07,-2.437982629999169e-06,1.4634146690368652,-0.013671875,-0.0009765625,-6.657774639997954e-16,0.0018695784759422526,-6.708886437507625e-16,0.0016917054200006817,1.3440091150569904,1.3455542265199787
1624632518.529312,1.832544020982917e-17,-3.6321463055569023e-16,5.74,4.9,2.6208311965092435e-07,-2.437982629999169e-06,1.4634146690368652,-0.013671875,-0.0009765625,-6.932793047979601e-16,0.0017514751289070065,-6.708886437507625e-16,0.0016917054200006817,1.3440052480379259,1.3455542265199787
1624632518.529312,1.832544020982917e-17,-3.6321463055569023e-16,5.74,4.9,2.6208311965092435e-07,-2.437982629999169e-06,1.4634146690368652,-0.013671875,-0.0009765625,-6.932793047979601e-16,0.0017514751289070065,-6.708886437507625e-16,0.0016917054200006817,1.3440052480379259,1.3455542265199787
1624632518.529312,1.832544020982917e-17,-3.6321463055569023e-16,5.74,4.9,2.6208311965092435e-07,-2.437982629999169e-06,1.4634146690368652,-0.013671875,-0.0009765625,-6.932793047979601e-16,0.0017514751289070065,-6.708886437507625e-16,0.0016917054200006817,1.3440052480379259,1.3455542265199787
1624632518.529312,1.832544020982917e-17,-3.6321463055569023e-16,5.75,4.91,2.6208311965092435e-07,-2.437982629999169e-06,1.4634146690368652,-0.013671875,-0.0009765625,-6.932793047979601e-16,0.0017514751289070065,-6.735912996755414e-16,0.0016379797163403118,1.3440052480379259,1.3455591420613149
1624632518.529312,1.832544020982917e-17,-3.6321463055569023e-16,5.75,4.91,2.6208311965092435e-07,-2.437982629999169e-06,1.4634146690368652,-0.013671875,-0.0009765625,-6.752574471339128e-16,0.001994387132651346,-6.735912996755414e-16,0.0016379797163403118,1.344064348252656,1.3455591420613149
1624632518.555312,1.8157822472842036e-17,-3.6579655786445924e-16,5.75,4.91,2.6208311965092435e-07,-2.437982629999169e-06,1.4634146690368652,-0.013671875,-0.0009765625,-6.752574471339128e-16,0.001994387132651346,-6.735912996755414e-16,0.0016379797163403118,1.344064348252656,1.3455591420613149
1624632518.555312,1.8157822472842036e-17,-3.6579655786445924e-16,5.75,4.91,2.6208311965092435e-07,-2.437982629999169e-06,1.4634146690368652,-0.013671875,-0.0009765625,-6.752574471339128e-16,0.001994387132651346,-6.735912996755414e-16,0.0016379797163403118,1.344064348252656,1.3455591420613149
1624632518.555312,1.8157822472842036e-17,-3.6579655786445924e-16,5.75,4.91,2.6208311965092435e-07,-2.437982629999169e-06,1.4634146690368652,-0.013671875,-0.0009765625,-6.752574471339128e-16,0.001994387132651346,-6.735912996755414e-16,0.0016379797163403118,1.344064348252656,1.3455591420613149
1624632518.555312,1.8157822472842036e-17,-3.6579655786445924e-16,5.75,4.91,2.6208311965092435e-07,-2.437982629999169e-06,1.2804877758026123,-0.01171875,0.01220703125,-6.752574471339128e-16,0.001994387132651346,-6.734349063962059e-16,0.0017449871601681126,1.344064348252656,1.3455546630721418
1624632518.5893118,0.0010426758687694182,-4.022535889032297e-10,5.75,4.91,2.6208311965092435e-07,-2.437982629999169e-06,1.2804877758026123,-0.01171875,0.01220703125,0.013455540252456082,0.0019211405242935233,-6.734349063962059e-16,0.0017449871601681126,1.344011969242051,1.3455546630721418
1624632518.5893118,0.0010426758687694182,-4.022535889032297e-10,5.75,4.91,2.6208311965092435e-07,-2.437982629999169e-06,1.2804877758026123,-0.01171875,0.01220703125,0.013455540252456082,0.0019211405242935233,-6.734349063962059e-16,0.0017449871601681126,1.344011969242051,1.3455546630721418
1624632518.5893118,0.0010426758687694182,-4.022535889032297e-10,5.75,4.91,2.6208311965092435e-07,-2.437982629999169e-06,1.2804877758026123,-0.01171875,0.01220703125,0.013455540252456082,0.0019211405242935233,-6.734349063962059e-16,0.0017449871601681126,1.344011969242051,1.3455546630721418
1624632518.5893118,0.0010426758687694182,-4.022535889032297e-10,5.75,4.91,0.01319844089448452,0.049853622913360596,1.2804877758026123,-0.01171875,0.01220703125,0.013455540252456082,0.0019211405242935233,-6.734349063962059e-16,0.0017449871601681126,1.344011969242051,1.3455546630721418
1624632518.5893118,0.0010426758687694182,-4.022535889032297e-10,5.75,4.91,0.01319844089448452,0.049853622913360596,1.2804877758026123,-0.01171875,0.01220703125,0.013455540252456082,0.0019211405242935233,0.001988872254474344,0.0017501738877091584,1.344011969242051,1.3455274157330976
1624632518.649312,0.003756666027187966,3.4575521694981655e-09,5.75,4.91,0.01319844089448452,0.049853622913360596,1.2804877758026123,-0.01171875,0.01220703125,0.035649744061883995,0.0016135543740912043,0.001988872254474344,0.0017501738877091584,1.344001951224089,1.3455274157330976
1624632518.649312,0.003756666027187966,3.4575521694981655e-09,5.75,4.91,0.01319844089448452,0.049853622913360596,1.2804877758026123,-0.01171875,0.01220703125,0.035649744061883995,0.0016135543740912043,0.001988872254474344,0.0017501738877091584,1.344001951224089,1.3455274157330976
1624632518.649312,0.003756666027187966,3.4575521694981655e-09,5.75,4.91,0.01319844089448452,0.049853622913360596,1.2804877758026123,-0.01171875,0.01220703125,0.035649744061883995,0.0016135543740912043,0.001988872254474344,0.0017501738877091584,1.344001951224089,1.3455274157330976
1624632518.649312,0.003756666027187966,3.4575521694981655e-09,5.75,4.91,0.01319844089448452,0.049853622913360596,0.18292683362960815,0.01318359375,0.0048828125,0.035649744061883995,0.0016135543740912043,0.001988872254474344,0.0017501738877091584,1.344001951224089,1.3455274157330976
1624632518.649312,0.003756666027187966,3.4575521694981655e-09,5.75,4.91,0.01319844089448452,0.049853622913360596,0.18292683362960815,0.01318359375,0.0048828125,0.035649744061883995,0.0016135543740912043,0.007222769319677875,0.0016362023304667323,1.344001951224089,1.34553565965015
1624632518.709312,0.007789593284432919,-2.6249047493030238e-08,5.75,4.91,0.06551171094179153,0.0983506292104721,0.18292683362960815,0.01318359375,0.0048828125,0.055936399524134164,0.001546815923512983,0.007222769319677875,0.0016362023304667323,1.344738722522147,1.34553565965015
1624632518.709312,0.007789593284432919,-2.6249047493030238e-08,5.75,4.91,0.06551171094179153,0.0983506292104721,0.18292683362960815,0.01318359375,0.0048828125,0.055936399524134164,0.001546815923512983,0.007222769319677875,0.0016362023304667323,1.344738722522147,1.34553565965015
1624632518.709312,0.007789593284432919,-2.6249047493030238e-08,5.75,4.91,0.06551171094179153,0.0983506292104721,0.18292683362960815,0.01318359375,0.0048828125,0.055936399524134164,0.001546815923512983,0.007222769319677875,0.0016362023304667323,1.344738722522147,1.34553565965015
1624632518.709312,0.007789593284432919,-2.6249047493030238e-08,5.75,4.91,0.06551171094179153,0.0983506292104721,0.18292683362960815,0.01318359375,0.0048828125,0.055936399524134164,0.001546815923512983,0.007222769319677875,0.0016362023304667323,1.344738722522147,1.34553565965015
1624632518.709312,0.007789593284432919,-2.6249047493030238e-08,5.75,4.94,0.06551171094179153,0.0983506292104721,0.18292683362960815,0.01318359375,0.0048828125,0.055936399524134164,0.001546815923512983,0.015134268380910835,0.001569211183875641,1.344738722522147,1.3455800530354247
1624632518.769312,0.012865921307560585,2.0856717595976566e-07,5.75,4.94,0.06551171094179153,0.0983506292104721,0.18292683362960815,0.01318359375,0.0048828125,0.07537615179574478,0.005016221618785434,0.015134268380910835,0.001569211183875641,1.3503794456871037,1.3455800530354247
1624632518.769312,0.012865921307560585,2.0856717595976566e-07,5.75,4.94,0.15307950973510742,-0.033235594630241394,0.18292683362960815,0.01318359375,0.0048828125,0.07537615179574478,0.005016221618785434,0.015134268380910835,0.001569211183875641,1.3503794456871037,1.3455800530354247
1624632518.769312,0.012865921307560585,2.0856717595976566e-07,5.75,4.94,0.15307950973510742,-0.033235594630241394,3.7195122241973877,0.11181640625,-0.10009765625,0.07537615179574478,0.005016221618785434,0.015134268380910835,0.001569211183875641,1.3503794456871037,1.3455800530354247
1624632518.769312,0.012865921307560585,2.0856717595976566e-07,5.75,4.94,0.15307950973510742,-0.033235594630241394,3.7195122241973877,0.11181640625,-0.10009765625,0.07537615179574478,0.005016221618785434,0.025285386820162556,0.003220278116222279,1.3503794456871037,1.3460504302378284
1624632518.769312,0.012865921307560585,2.0856717595976566e-07,5.75,4.94,0.15307950973510742,-0.033235594630241394,3.7195122241973877,0.11181640625,-0.10009765625,0.07537615179574478,0.005016221618785434,0.025285386820162556,0.003220278116222279,1.3503794456871037,1.3460504302378284
1624632518.769312,0.016526784463786793,3.7722563619391834e-07,5.75,4.94,0.15307950973510742,-0.033235594630241394,3.7195122241973877,0.11181640625,-0.10009765625,0.07537615179574478,0.005016221618785434,0.025285386820162556,0.003220278116222279,1.3503794456871037,1.3460504302378284
1624632518.769312,0.016526784463786793,3.7722563619391834e-07,5.75,4.94,0.15307950973510742,-0.033235594630241394,3.7195122241973877,0.11181640625,-0.10009765625,0.07537615179574478,0.005016221618785434,0.025285386820162556,0.003220278116222279,1.3503794456871037,1.3460504302378284
1624632518.769312,0.016526784463786793,3.7722563619391834e-07,5.75,4.94,0.2694135904312134,-0.08227700740098953,3.7195122241973877,0.11181640625,-0.10009765625,0.07537615179574478,0.005016221618785434,0.032268950304544713,0.0038685785648351527,1.3503794456871037,1.3463220604059813
1624632518.769312,0.016526784463786793,3.7722563619391834e-07,5.75,4.93,0.2694135904312134,-0.08227700740098953,3.7195122241973877,0.11181640625,-0.10009765625,0.07537615179574478,0.005016221618785434,0.032268950304544713,0.0038685785648351527,1.3503794456871037,1.3463220604059813
1624632518.769312,0.016526784463786793,3.7722563619391834e-07,5.75,4.93,0.2694135904312134,-0.08227700740098953,3.7195122241973877,0.11181640625,-0.10009765625,0.07537615179574478,0.005016221618785434,0.032268950304544713,0.0038685785648351527,1.3503794456871037,1.3463220604059813
1624632518.847312,0.022002603576004143,2.4795513341852815e-06,5.75,4.93,0.2694135904312134,-0.08227700740098953,3.7195122241973877,0.11181640625,-0.10009765625,0.10206044895575768,0.00870379745493823,0.032268950304544713,0.0038685785648351527,1.3534496813701933,1.3463220604059813
1624632518.847312,0.022002603576004143,2.4795513341852815e-06,5.75,4.93,0.2694135904312134,-0.08227700740098953,3.7195122241973877,0.11181640625,-0.10009765625,0.10206044895575768,0.00870379745493823,0.032268950304544713,0.0038685785648351527,1.3534496813701933,1.3463220604059813
1624632518.847312,0.022002603576004143,2.4795513341852815e-06,5.75,4.93,0.2694135904312134,-0.08227700740098953,3.7195122241973877,0.11181640625,-0.10009765625,0.10206044895575768,0.00870379745493823,0.032268950304544713,0.0038685785648351527,1.3534496813701933,1.3463220604059813
1624632518.847312,0.022002603576004143,2.4795513341852815e-06,5.75,4.93,0.3788905441761017,-0.049848247319459915,4.390244007110596,-0.47021484375,-0.36328125,0.10206044895575768,0.00870379745493823,0.043992649933451956,0.006150391023416154,1.3534496813701933,1.3470373991684024
1624632518.847312,0.022002603576004143,2.4795513341852815e-06,5.75,4.93,0.3788905441761017,-0.049848247319459915,4.390244007110596,-0.47021484375,-0.36328125,0.10206044895575768,0.00870379745493823,0.043992649933451956,0.006150391023416154,1.3534496813701933,1.3470373991684024
1624632518.8893118,0.026634391046456745,5.638839024575468e-06,5.75,4.93,0.3788905441761017,-0.049848247319459915,4.390244007110596,-0.47021484375,-0.36328125,0.1028609598386259,0.008252574768346036,0.043992649933451956,0.006150391023416154,1.3519540510252712,1.3470373991684024
1624632518.8893118,0.026634391046456745,5.638839024575468e-06,5.75,4.93,0.3788905441761017,-0.049848247319459915,4.390244007110596,-0.47021484375,-0.36328125,0.1028609598386259,0.008252574768346036,0.043992649933451956,0.006150391023416154,1.3519540510252712,1.3470373991684024
1624632518.8893118,0.026634391046456745,5.638839024575468e-06,5.75,4.93,0.3788905441761017,-0.049848247319459915,4.390244007110596,-0.47021484375,-0.36328125,0.1028609598386259,0.008252574768346036,0.043992649933451956,0.006150391023416154,1.3519540510252712,1.3470373991684024
1624632518.8893118,0.026634391046456745,5.638839024575468e-06,5.77,4.94,0.47863367199897766,-0.03323609381914139,4.390244007110596,-0.47021484375,-0.36328125,0.1028609598386259,0.008252574768346036,0.05373430306819257,0.00704736341217426,1.3519540510252712,1.3476170702564314
1624632518.8893118,0.026634391046456745,5.638839024575468e-06,5.77,4.94,0.47863367199897766,-0.03323609381914139,4.390244007110596,-0.47021484375,-0.36328125,0.1028609598386259,0.008252574768346036,0.05373430306819257,0.00704736341217426,1.3519540510252712,1.3476170702564314
1624632518.9513118,0.030970317452183135,6.250996557665743e-06,5.77,4.94,0.47863367199897766,-0.03323609381914139,4.390244007110596,-0.47021484375,-0.36328125,0.10772634057199774,-0.0047283397337932395,0.05373430306819257,0.00704736341217426,1.3492851171807425,1.3476170702564314
1624632518.9513118,0.030970317452183135,6.250996557665743e-06,5.77,4.94,0.47863367199897766,-0.03323609381914139,4.390244007110596,-0.47021484375,-0.36328125,0.10772634057199774,-0.0047283397337932395,0.05373430306819257,0.00704736341217426,1.3492851171807425,1.3476170702564314
1624632518.9513118,0.030970317452183135,6.250996557665743e-06,5.77,4.94,0.47863367199897766,-0.03323609381914139,4.390244007110596,-0.47021484375,-0.36328125,0.10772634057199774,-0.0047283397337932395,0.05373430306819257,0.00704736341217426,1.3492851171807425,1.3476170702564314
1624632518.9513118,0.030970317452183135,6.250996557665743e-06,5.77,4.94,0.47863367199897766,-0.03323609381914139,1.3414634466171265,-0.39794921875,0.08447265625,0.10772634057199774,-0.0047283397337932395,0.06364188070618539,0.0018901270135890389,1.3492851171807425,1.3477993137041828
1624632518.9513118,0.030970317452183135,6.250996557665743e-06,5.77,4.94,0.47863367199897766,-0.03323609381914139,1.3414634466171265,-0.39794921875,0.08447265625,0.10772634057199774,-0.0047283397337932395,0.06364188070618539,0.0018901270135890389,1.3492851171807425,1.3477993137041828
1624632519.009312,0.035502968605979096,8.815368897340854e-07,5.77,4.94,0.5331939458847046,3.3127766982943285e-06,1.3414634466171265,-0.39794921875,0.08447265625,0.11915043206000483,-0.004558427400721549,0.06364188070618539,0.0018901270135890389,1.3468923198481462,1.3477993137041828
1624632519.009312,0.035502968605979096,8.815368897340854e-07,5.77,4.94,0.5331939458847046,3.3127766982943285e-06,1.3414634466171265,-0.39794921875,0.08447265625,0.11915043206000483,-0.004558427400721549,0.06364188070618539,0.0018901270135890389,1.3468923198481462,1.3477993137041828
1624632519.009312,0.035502968605979096,8.815368897340854e-07,5.77,4.94,0.5331939458847046,3.3127766982943285e-06,1.3414634466171265,-0.39794921875,0.08447265625,0.11915043206000483,-0.004558427400721549,0.06364188070618539,0.0018901270135890389,1.3468923198481462,1.3477993137041828
1624632519.009312,0.035502968605979096,8.815368897340854e-07,5.78,4.94,0.5331939458847046,3.3127766982943285e-06,1.3414634466171265,-0.39794921875,0.08447265625,0.11915043206000483,-0.004558427400721549,0.06364188070618539,0.0018901270135890389,1.3468923198481462,1.3477993137041828
1624632519.009312,0.035502968605979096,8.815368897340854e-07,5.78,4.94,0.5331939458847046,3.3127766982943285e-06,1.3414634466171265,-0.39794921875,0.08447265625,0.11915043206000483,-0.004558427400721549,0.07407572148965967,-0.0005166395055030547,1.3468923198481462,1.3476874719369112
1624632519.0693119,0.04053683955971298,-1.1687431579322456e-05,5.78,4.94,0.5331939458847046,3.3127766982943285e-06,1.3414634466171265,-0.39794921875,0.08447265625,0.1348816931684293,-0.009616179081401503,0.07407572148965967,-0.0005166395055030547,1.3447388914529304,1.3476874719369112
1624632519.0693119,0.04053683955971298,-1.1687431579322456e-05,5.78,4.94,0.5302584171295166,-0.01569530926644802,1.3414634466171265,-0.39794921875,0.08447265625,0.1348816931684293,-0.009616179081401503,0.07407572148965967,-0.0005166395055030547,1.3447388914529304,1.3476874719369112
1624632519.0693119,0.04053683955971298,-1.1687431579322456e-05,5.78,4.94,0.5302584171295166,-0.01569530926644802,0.6097561120986938,-0.03759765625,-0.10302734375,0.1348816931684293,-0.009616179081401503,0.07407572148965967,-0.0005166395055030547,1.3447388914529304,1.3476874719369112
1624632519.0693119,0.04053683955971298,-1.1687431579322456e-05,5.78,4.94,0.5302584171295166,-0.01569530926644802,0.6097561120986938,-0.03759765625,-0.10302734375,0.1348816931684293,-0.009616179081401503,0.08581103281634066,-0.004577907034645941,1.3447388914529304,1.347175260470574
1624632519.0693119,0.04053683955971298,-1.1687431579322456e-05,5.78,4.94,0.5302584171295166,-0.01569530926644802,0.6097561120986938,-0.03759765625,-0.10302734375,0.1348816931684293,-0.009616179081401503,0.08581103281634066,-0.004577907034645941,1.3447388914529304,1.347175260470574
1624632519.0693119,0.044154472926526134,-2.0732435278559738e-05,5.78,4.94,0.5302584171295166,-0.01569530926644802,0.6097561120986938,-0.03759765625,-0.10302734375,0.1348816931684293,-0.009616179081401503,0.08581103281634066,-0.004577907034645941,1.3447388914529304,1.347175260470574
1624632519.0693119,0.044154472926526134,-2.0732435278559738e-05,5.78,4.94,0.5302584171295166,-0.01569530926644802,0.6097561120986938,-0.03759765625,-0.10302734375,0.1348816931684293,-0.009616179081401503,0.08581103281634066,-0.004577907034645941,1.3447388914529304,1.347175260470574
1624632519.0693119,0.044154472926526134,-2.0732435278559738e-05,5.78,4.95,0.5302584171295166,-0.01569530926644802,0.6097561120986938,-0.03759765625,-0.10302734375,0.1348816931684293,-0.009616179081401503,0.08581103281634066,-0.004577907034645941,1.3447388914529304,1.347175260470574
1624632519.0693119,0.044154472926526134,-2.0732435278559738e-05,5.78,4.95,0.5292990207672119,0.0005338882328942418,0.6097561120986938,-0.03759765625,-0.10302734375,0.1348816931684293,-0.009616179081401503,0.09271384340969309,-0.0061616889563453564,1.3447388914529304,1.346914387876801
1624632519.0693119,0.044154472926526134,-2.0732435278559738e-05,5.78,4.95,0.5292990207672119,0.0005338882328942418,0.6097561120986938,-0.03759765625,-0.10302734375,0.1348816931684293,-0.009616179081401503,0.09271384340969309,-0.0061616889563453564,1.3447388914529304,1.346914387876801
1624632519.1393118,0.04850228119428551,-3.295404018630253e-05,5.78,4.95,0.5292990207672119,0.0005338882328942418,0.6097561120986938,-0.03759765625,-0.10302734375,0.15060544456746258,0.0011849537983345051,0.09271384340969309,-0.0061616889563453564,1.3447154686554257,1.346914387876801
1624632519.1393118,0.04850228119428551,-3.295404018630253e-05,5.78,4.95,0.5292990207672119,0.0005338882328942418,0.6097561120986938,-0.03759765625,-0.10302734375,0.15060544456746258,0.0011849537983345051,0.09271384340969309,-0.0061616889563453564,1.3447154686554257,1.346914387876801
1624632519.1393118,0.04850228119428551,-3.295404018630253e-05,5.78,4.95,0.5292990207672119,0.0005338882328942418,0.6097561120986938,-0.03759765625,-0.10302734375,0.15060544456746258,0.0011849537983345051,0.09271384340969309,-0.0061616889563453564,1.3447154686554257,1.346914387876801
1624632519.1393118,0.04850228119428551,-3.295404018630253e-05,5.78,4.95,0.5135639905929565,7.050168278510682e-06,-1.097561001777649,-0.19384765625,0.0791015625,0.15060544456746258,0.0011849537983345051,0.10408636599697259,-0.0028974457917464247,1.3447154686554257,1.346552787217133
1624632519.1393118,0.04850228119428551,-3.295404018630253e-05,5.78,4.95,0.5135639905929565,7.050168278510682e-06,-1.097561001777649,-0.19384765625,0.0791015625,0.15060544456746258,0.0011849537983345051,0.10408636599697259,-0.0028974457917464247,1.3447154686554257,1.346552787217133
1624632519.189312,0.053521259753289356,-4.469625299543802e-05,5.78,4.95,0.5135639905929565,7.050168278510682e-06,-1.097561001777649,-0.19384765625,0.0791015625,0.16872696397182457,0.001121236905927524,0.10408636599697259,-0.0028974457917464247,1.3446670674710979,1.346552787217133
1624632519.189312,0.053521259753289356,-4.469625299543802e-05,5.78,4.95,0.5135639905929565,7.050168278510682e-06,-1.097561001777649,-0.19384765625,0.0791015625,0.16872696397182457,0.001121236905927524,0.10408636599697259,-0.0028974457917464247,1.3446670674710979,1.346552787217133
1624632519.189312,0.053521259753289356,-4.469625299543802e-05,5.78,4.95,0.5135639905929565,7.050168278510682e-06,-1.097561001777649,-0.19384765625,0.0791015625,0.16872696397182457,0.001121236905927524,0.10408636599697259,-0.0028974457917464247,1.3446670674710979,1.346552787217133
1624632519.189312,0.053521259753289356,-4.469625299543802e-05,5.79,4.92,0.49573177099227905,0.015528196468949318,-1.097561001777649,-0.19384765625,0.0791015625,0.16872696397182457,0.001121236905927524,0.11606388493272829,-0.0014694160159112054,1.3446670674710979,1.3463428467011402
1624632519.189312,0.053521259753289356,-4.469625299543802e-05,5.79,4.92,0.49573177099227905,0.015528196468949318,-1.097561001777649,-0.19384765625,0.0791015625,0.16872696397182457,0.001121236905927524,0.11606388493272829,-0.0014694160159112054,1.3446670674710979,1.3463428467011402
1624632519.249312,0.05881970012667605,-5.4699571054271225e-05,5.79,4.92,0.49573177099227905,0.015528196468949318,-1.097561001777649,-0.19384765625,0.0791015625,0.18301950552181734,0.005184853256020411,0.11606388493272829,-0.0014694160159112054,1.3449610096897244,1.3463428467011402
1624632519.249312,0.05881970012667605,-5.4699571054271225e-05,5.79,4.92,0.49573177099227905,0.015528196468949318,-1.097561001777649,-0.19384765625,0.0791015625,0.18301950552181734,0.005184853256020411,0.11606388493272829,-0.0014694160159112054,1.3449610096897244,1.3463428467011402
1624632519.249312,0.05881970012667605,-5.4699571054271225e-05,5.79,4.92,0.49573177099227905,0.015528196468949318,-0.12195122241973877,-0.115234375,0.1259765625,0.18301950552181734,0.005184853256020411,0.11606388493272829,-0.0014694160159112054,1.3449610096897244,1.3463428467011402
1624632519.249312,0.05881970012667605,-5.4699571054271225e-05,5.79,4.92,0.49573177099227905,0.015528196468949318,-0.12195122241973877,-0.115234375,0.1259765625,0.18301950552181734,0.005184853256020411,0.12936259429480915,0.0014078427324588673,1.3449610096897244,1.346301555936869
1624632519.249312,0.05881970012667605,-5.4699571054271225e-05,5.79,4.92,0.5056658387184143,-0.0005417378270067275,-0.12195122241973877,-0.115234375,0.1259765625,0.18301950552181734,0.005184853256020411,0.12936259429480915,0.0014078427324588673,1.3449610096897244,1.346301555936869
1624632519.3093119,0.06406383722816093,-6.201422921756776e-05,5.79,4.92,0.5056658387184143,-0.0005417378270067275,-0.12195122241973877,-0.115234375,0.1259765625,0.19467740201161504,0.00488218826020504,0.12936259429480915,0.0014078427324588673,1.345427307568899,1.346301555936869
1624632519.3093119,0.06406383722816093,-6.201422921756776e-05,5.79,4.92,0.5056658387184143,-0.0005417378270067275,-0.12195122241973877,-0.115234375,0.1259765625,0.19467740201161504,0.00488218826020504,0.12936259429480915,0.0014078427324588673,1.345427307568899,1.346301555936869
1624632519.3093119,0.06406383722816093,-6.201422921756776e-05,5.79,4.88,0.5056658387184143,-0.0005417378270067275,-0.12195122241973877,-0.115234375,0.1259765625,0.19467740201161504,0.00488218826020504,0.14288625096263594,0.002651892531633917,1.345427307568899,1.3463576292518138
1624632519.3093119,0.06406383722816093,-6.201422921756776e-05,5.79,4.88,0.5056658387184143,-0.0005417378270067275,-0.12195122241973877,-0.115234375,0.1259765625,0.19467740201161504,0.00488218826020504,0.14288625096263594,0.002651892531633917,1.345427307568899,1.3463576292518138
1624632519.3093119,0.06406383722816093,-6.201422921756776e-05,5.79,4.88,0.5056658387184143,-0.0005417378270067275,-0.12195122241973877,-0.115234375,0.1259765625,0.19467740201161504,0.00488218826020504,0.14288625096263594,0.002651892531633917,1.345427307568899,1.3463576292518138
1624632519.3693118,0.0690715982780653,-6.652647093932963e-05,5.79,4.88,0.49791404604911804,0.0002709234249778092,-0.12195122241973877,-0.115234375,0.1259765625,0.2048606802995344,-0.00043519837413806106,0.14288625096263594,0.002651892531633917,1.345630566576832,1.3463576292518138
1624632519.3693118,0.0690715982780653,-6.652647093932963e-05,5.79,4.88,0.49791404604911804,0.0002709234249778092,-0.12195122241973877,-0.115234375,0.1259765625,0.2048606802995344,-0.00043519837413806106,0.14288625096263594,0.002651892531633917,1.345630566576832,1.3463576292518138
1624632519.3693118,0.0690715982780653,-6.652647093932963e-05,5.79,4.88,0.49791404604911804,0.0002709234249778092,-0.12195122241973877,-0.115234375,0.1259765625,0.2048606802995344,-0.00043519837413806106,0.1562876563974524,0.0012979235099504973,1.345630566576832,1.3463271358157962
1624632519.3693118,0.0690715982780653,-6.652647093932963e-05,5.79,4.88,0.49791404604911804,0.0002709234249778092,0.9146341681480408,-0.65771484375,0.326171875,0.2048606802995344,-0.00043519837413806106,0.1562876563974524,0.0012979235099504973,1.345630566576832,1.3463271358157962
1624632519.3693118,0.0690715982780653,-6.652647093932963e-05,5.79,4.88,0.49791404604911804,0.0002709234249778092,0.9146341681480408,-0.65771484375,0.326171875,0.2048606802995344,-0.00043519837413806106,0.1562876563974524,0.0012979235099504973,1.345630566576832,1.3463271358157962
1624632519.3693118,0.0726651664722866,-6.976975901224413e-05,5.79,4.88,0.49791404604911804,0.0002709234249778092,0.9146341681480408,-0.65771484375,0.326171875,0.2048606802995344,-0.00043519837413806106,0.1562876563974524,0.0012979235099504973,1.345630566576832,1.3463271358157962
1624632519.3693118,0.0726651664722866,-6.976975901224413e-05,5.79,4.88,0.49566078186035156,0.01607310213148594,0.9146341681480408,-0.65771484375,0.326171875,0.2048606802995344,-0.00043519837413806106,0.16314617282538785,0.0007632710130828513,1.345630566576832,1.3462231875905093
1624632519.3693118,0.0726651664722866,-6.976975901224413e-05,5.79,4.88,0.49566078186035156,0.01607310213148594,0.9146341681480408,-0.65771484375,0.326171875,0.2048606802995344,-0.00043519837413806106,0.16314617282538785,0.0007632710130828513,1.345630566576832,1.3462231875905093
1624632519.3693118,0.0726651664722866,-6.976975901224413e-05,5.79,4.84,0.49566078186035156,0.01607310213148594,0.9146341681480408,-0.65771484375,0.326171875,0.2048606802995344,-0.00043519837413806106,0.16314617282538785,0.0007632710130828513,1.345630566576832,1.3462231875905093
1624632519.3693118,0.0726651664722866,-6.976975901224413e-05,5.79,4.84,0.49566078186035156,0.01607310213148594,0.9146341681480408,-0.65771484375,0.326171875,0.2048606802995344,-0.00043519837413806106,0.16314617282538785,0.0007632710130828513,1.345630566576832,1.3462231875905093
1624632519.4513118,0.07586750967446262,-7.119082027339738e-05,5.79,4.84,0.49566078186035156,0.01607310213148594,0.9146341681480408,-0.65771484375,0.326171875,0.20859108793788525,-0.0011337498233515361,0.16314617282538785,0.0007632710130828513,1.3455402183733487,1.3462231875905093
1624632519.4513118,0.07586750967446262,-7.119082027339738e-05,5.79,4.84,0.49566078186035156,0.01607310213148594,0.9146341681480408,-0.65771484375,0.326171875,0.20859108793788525,-0.0011337498233515361,0.17521455367692582,-9.671738494151526e-05,1.3455402183733487,1.3461694092572691
1624632519.4513118,0.07586750967446262,-7.119082027339738e-05,5.79,4.84,0.5016850829124451,-0.0008093484793789685,0.9146341681480408,-0.65771484375,0.326171875,0.20859108793788525,-0.0011337498233515361,0.17521455367692582,-9.671738494151526e-05,1.3455402183733487,1.3461694092572691
1624632519.4513118,0.07586750967446262,-7.119082027339738e-05,5.79,4.84,0.5016850829124451,-0.0008093484793789685,-1.8292683362960815,0.009765625,-0.43212890625,0.20859108793788525,-0.0011337498233515361,0.17521455367692582,-9.671738494151526e-05,1.3455402183733487,1.3461694092572691
1624632519.4513118,0.07586750967446262,-7.119082027339738e-05,5.79,4.84,0.5016850829124451,-0.0008093484793789685,-1.8292683362960815,0.009765625,-0.43212890625,0.20859108793788525,-0.0011337498233515361,0.17521455367692582,-9.671738494151526e-05,1.3455402183733487,1.3461694092572691
1624632519.489312,0.0792702994823885,-7.134357777324191e-05,5.79,4.84,0.5016850829124451,-0.0008093484793789685,-1.8292683362960815,0.009765625,-0.43212890625,0.22052476481980224,-0.0010887195262504305,0.17521455367692582,-9.671738494151526e-05,1.345540708735472,1.3461694092572691
1624632519.489312,0.0792702994823885,-7.134357777324191e-05,5.79,4.84,0.5016850829124451,-0.0008093484793789685,-1.8292683362960815,0.009765625,-0.43212890625,0.22052476481980224,-0.0010887195262504305,0.18458351888463553,-0.0004635799542689373,1.345540708735472,1.3460565906206532
1624632519.489312,0.0792702994823885,-7.134357777324191e-05,5.8,4.8,0.5016850829124451,-0.0008093484793789685,-1.8292683362960815,0.009765625,-0.43212890625,0.22052476481980224,-0.0010887195262504305,0.18458351888463553,-0.0004635799542689373,1.345540708735472,1.3460565906206532
1624632519.489312,0.0792702994823885,-7.134357777324191e-05,5.8,4.8,0.5178880095481873,0.03322405740618706,-1.8292683362960815,0.009765625,-0.43212890625,0.22052476481980224,-0.0010887195262504305,0.18458351888463553,-0.0004635799542689373,1.345540708735472,1.3460565906206532
1624632519.489312,0.0792702994823885,-7.134357777324191e-05,5.8,4.8,0.5178880095481873,0.03322405740618706,-1.8292683362960815,0.009765625,-0.43212890625,0.22052476481980224,-0.0010887195262504305,0.18458351888463553,-0.0004635799542689373,1.345540708735472,1.3460565906206532
1624632519.555312,0.08224153905327979,-7.193816582250208e-05,5.8,4.8,0.5178880095481873,0.03322405740618706,-1.8292683362960815,0.009765625,-0.43212890625,0.22537918059356699,0.004552048416998115,0.18458351888463553,-0.0004635799542689373,1.3447924901450523,1.3460565906206532
1624632519.555312,0.08224153905327979,-7.193816582250208e-05,5.8,4.8,0.5178880095481873,0.03322405740618706,-1.8292683362960815,0.009765625,-0.43212890625,0.22537918059356699,0.004552048416998115,0.18458351888463553,-0.0004635799542689373,1.3447924901450523,1.3460565906206532
1624632519.555312,0.08224153905327979,-7.193816582250208e-05,5.8,4.8,0.5178880095481873,0.03322405740618706,-2.378048896789551,0.24951171875,-0.224609375,0.22537918059356699,0.004552048416998115,0.18458351888463553,-0.0004635799542689373,1.3447924901450523,1.3460565906206532
1624632519.555312,0.08224153905327979,-7.193816582250208e-05,5.8,4.8,0.5178880095481873,0.03322405740618706,-2.378048896789551,0.24951171875,-0.224609375,0.22537918059356699,0.004552048416998115,0.18458351888463553,-0.0004635799542689373,1.3447924901450523,1.3460565906206532
1624632519.555312,0.08224153905327979,-7.193816582250208e-05,5.8,4.8,0.5056665539741516,-0.0005350268329493701,-2.378048896789551,0.24951171875,-0.224609375,0.23239887265256687,0.004302864351804631,0.18458351888463553,-0.0004635799542689373,1.3449559444081998,1.3460565906206532
1624632519.6093118,0.08497992405311987,-7.249934392421215e-05,5.8,4.8,0.5056665539741516,-0.0005350268329493701,-2.378048896789551,0.24951171875,-0.224609375,0.23239887265256687,0.004302864351804631,0.19548154925365324,0.001739810387049681,1.3449559444081998,1.345960110381701
1624632519.6093118,0.08497992405311987,-7.249934392421215e-05,5.8,4.8,0.5056665539741516,-0.0005350268329493701,-2.378048896789551,0.24951171875,-0.224609375,0.23239887265256687,0.004302864351804631,0.19548154925365324,0.001739810387049681,1.3449559444081998,1.345960110381701
1624632519.6093118,0.08497992405311987,-7.249934392421215e-05,5.82,4.76,0.5056665539741516,-0.0005350268329493701,-2.378048896789551,0.24951171875,-0.224609375,0.23239887265256687,0.004302864351804631,0.19548154925365324,0.001739810387049681,1.3449559444081998,1.345960110381701
1624632519.6093118,0.08497992405311987,-7.249934392421215e-05,5.82,4.76,0.5056665539741516,-0.0005350268329493701,-2.378048896789551,0.24951171875,-0.224609375,0.23239887265256687,0.004302864351804631,0.19548154925365324,0.001739810387049681,1.3449559444081998,1.345960110381701
1624632519.6093118,0.08497992405311987,-7.249934392421215e-05,5.82,4.76,0.5056665539741516,-0.0005350268329493701,-2.378048896789551,0.24951171875,-0.224609375,0.2375361490469922,0.02558439532022718,0.2051469885176582,0.0026429455461196858,1.3456502618147905,1.3459077901395515
1624632519.669312,0.0873198970581176,-7.268464988182707e-05,5.82,4.76,0.4682217836380005,0.01635705679655075,-2.378048896789551,0.24951171875,-0.224609375,0.2375361490469922,0.02558439532022718,0.2051469885176582,0.0026429455461196858,1.3456502618147905,1.3459077901395515
1624632519.669312,0.0873198970581176,-7.268464988182707e-05,5.82,4.76,0.4682217836380005,0.01635705679655075,-2.378048896789551,0.24951171875,-0.224609375,0.2375361490469922,0.02558439532022718,0.2147147629266611,0.012638215975916202,1.3456502618147905,1.3465153307925275
1624632519.669312,0.0873198970581176,-7.268464988182707e-05,5.82,4.76,0.4682217836380005,0.01635705679655075,-0.792682945728302,0.064453125,-0.0185546875,0.2375361490469922,0.02558439532022718,0.2147147629266611,0.012638215975916202,1.3456502618147905,1.3465153307925275
1624632519.669312,0.0873198970581176,-7.268464988182707e-05,5.82,4.76,0.4682217836380005,0.01635705679655075,-0.792682945728302,0.064453125,-0.0185546875,0.2375361490469922,0.02558439532022718,0.2147147629266611,0.012638215975916202,1.3456502618147905,1.3465153307925275
1624632519.669312,0.08900133859975273,-7.277088250488306e-05,5.82,4.76,0.4682217836380005,0.01635705679655075,-0.792682945728302,0.064453125,-0.0185546875,0.2375361490469922,0.02558439532022718,0.2147147629266611,0.012638215975916202,1.3456502618147905,1.3465153307925275
1624632519.669312,0.08900133859975273,-7.277088250488306e-05,5.82,4.76,0.4682217836380005,0.01635705679655075,-0.792682945728302,0.064453125,-0.0185546875,0.2375361490469922,0.02558439532022718,0.2147147629266611,0.012638215975916202,1.3456502618147905,1.3465153307925275
1624632519.669312,0.08900133859975273,-7.277088250488306e-05,5.82,4.76,0.3709019720554352,0.032718874514102936,-0.792682945728302,0.064453125,-0.0185546875,0.2375361490469922,0.02558439532022718,0.21792603970309618,0.016551464594459563,1.3456502618147905,1.3465515772782202
1624632519.669312,0.08900133859975273,-7.277088250488306e-05,5.83,4.72,0.3709019720554352,0.032718874514102936,-0.792682945728302,0.064453125,-0.0185546875,0.2375361490469922,0.02558439532022718,0.21792603970309618,0.016551464594459563,1.3456502618147905,1.3465515772782202
1624632519.669312,0.08900133859975273,-7.277088250488306e-05,5.83,4.72,0.3709019720554352,0.032718874514102936,-0.792682945728302,0.064453125,-0.0185546875,0.2375361490469922,0.02558439532022718,0.21792603970309618,0.016551464594459563,1.3456502618147905,1.3465515772782202
1624632519.669312,0.08900133859975273,-7.277088250488306e-05,5.83,4.72,0.3709019720554352,0.032718874514102936,-0.792682945728302,0.064453125,-0.0185546875,0.23765598276635028,0.024000995504622154,0.21792603970309618,0.016551464594459563,1.3462116582290997,1.3465515772782202
1624632519.743312,0.09005073016652584,-7.31550789156984e-05,5.83,4.72,0.3709019720554352,0.032718874514102936,-0.792682945728302,0.064453125,-0.0185546875,0.23765598276635028,0.024000995504622154,0.21792603970309618,0.016551464594459563,1.3462116582290997,1.3465515772782202
1624632519.743312,0.09005073016652584,-7.31550789156984e-05,5.83,4.72,0.3709019720554352,0.032718874514102936,-0.792682945728302,0.064453125,-0.0185546875,0.23765598276635028,0.024000995504622154,0.21792603970309618,0.016551464594459563,1.3462116582290997,1.3465515772782202
1624632519.743312,0.09005073016652584,-7.31550789156984e-05,5.83,4.72,0.2897636890411377,0.03350069746375084,-0.792682945728302,-0.203125,0.5078125,0.23765598276635028,0.024000995504622154,0.21792603970309618,0.016551464594459563,1.3462116582290997,1.3465515772782202
1624632519.743312,0.09005073016652584,-7.31550789156984e-05,5.83,4.72,0.2897636890411377,0.03350069746375084,-0.792682945728302,-0.203125,0.5078125,0.23765598276635028,0.024000995504622154,0.21792603970309618,0.016551464594459563,1.3462116582290997,1.3465515772782202
1624632519.789312,0.0908930366882407,-7.40601208561486e-05,5.83,4.72,0.2897636890411377,0.03350069746375084,-0.792682945728302,-0.203125,0.5078125,0.24112543908467587,0.024000995504622154,0.22651309311055703,0.019785532410919123,1.345944298921106,1.347674087559867
1624632519.789312,0.0908930366882407,-7.40601208561486e-05,5.83,4.72,0.2897636890411377,0.03350069746375084,-0.792682945728302,-0.203125,0.5078125,0.24112543908467587,0.022837073166772408,0.22651309311055703,0.019785532410919123,1.345944298921106,1.347674087559867
1624632519.789312,0.0908930366882407,-7.40601208561486e-05,5.83,4.72,0.2897636890411377,0.03350069746375084,-0.792682945728302,-0.203125,0.5078125,0.24112543908467587,0.022837073166772408,0.22651309311055703,0.019785532410919123,1.345944298921106,1.347674087559867
1624632519.789312,0.0908930366882407,-7.40601208561486e-05,5.83,4.71,0.2897636890411377,0.03350069746375084,-0.792682945728302,-0.203125,0.5078125,0.24112543908467587,0.022837073166772408,0.22651309311055703,0.019785532410919123,1.345944298921106,1.347674087559867
1624632519.789312,0.0908930366882407,-7.40601208561486e-05,5.83,4.71,0.18817508220672607,-0.0002787729899864644,-0.792682945728302,-0.203125,0.5078125,0.24112543908467587,0.022837073166772408,0.23225989226330138,0.020817617548042996,1.345944298921106,1.3480961041881827
1624632519.8493118,0.09079121115106027,-7.52251348015336e-05,5.83,4.71,0.18817508220672607,-0.0002787729899864644,-0.792682945728302,-0.203125,0.5078125,0.23648592148944148,0.00782663224226334,0.2375194991968732,0.01502361778735277,1.3456908338728033,1.3482954053424858
1624632519.8493118,0.09079121115106027,-7.52251348015336e-05,5.83,4.71,0.18817508220672607,-0.0002787729899864644,-0.792682945728302,-0.203125,0.5078125,0.23648592148944148,0.00782663224226334,0.2375194991968732,0.01502361778735277,1.3456908338728033,1.3482954053424858
1624632519.8493118,0.09079121115106027,-7.52251348015336e-05,5.83,4.71,0.18817508220672607,-0.0002787729899864644,-0.792682945728302,-0.203125,0.5078125,0.23648592148944148,0.00782663224226334,0.2375194991968732,0.01502361778735277,1.3456908338728033,1.3482954053424858
1624632519.8493118,0.09079121115106027,-7.52251348015336e-05,5.83,4.71,0.18817508220672607,-0.0002787729899864644,-0.792682945728302,-0.203125,0.5078125,0.23648592148944148,0.00782663224226334,0.2375194991968732,0.01502361778735277,1.3456908338728033,1.3482954053424858
1624632519.8493118,0.09079121115106027,-7.52251348015336e-05,5.83,4.71,0.18817508220672607,-0.0002787729899864644,-0.18292683362960815,0.0234375,0.21240234375,0.23648592148944148,0.00782663224226334,0.2375194991968732,0.01502361778735277,1.3456908338728033,1.3482954053424858
1624632519.909312,0.08939087351730131,-7.577574419409262e-05,5.83,4.71,0.08626068383455276,0.0002766741963569075,-0.18292683362960815,0.0234375,0.21240234375,0.22644379844676157,0.007323297762153647,0.2375194991968732,0.01502361778735277,1.345442838201804,1.3482954053424858
1624632519.909312,0.08939087351730131,-7.577574419409262e-05,5.83,4.71,0.08626068383455276,0.0002766741963569075,-0.18292683362960815,0.0234375,0.21240234375,0.22644379844676157,0.007323297762153647,0.2375194991968732,0.01502361778735277,1.345442838201804,1.3482954053424858
1624632519.909312,0.08939087351730131,-7.577574419409262e-05,5.83,4.71,0.08626068383455276,0.0002766741963569075,-0.18292683362960815,0.0234375,0.21240234375,0.22644379844676157,0.007323297762153647,0.2375194991968732,0.01502361778735277,1.345442838201804,1.3482954053424858
1624632519.909312,0.08939087351730131,-7.577574419409262e-05,5.82,4.66,0.08626068383455276,0.0002766741963569075,-0.18292683362960815,0.0234375,0.21240234375,0.22644379844676157,0.007323297762153647,0.2375194991968732,0.01502361778735277,1.345442838201804,1.3482954053424858
1624632519.909312,0.08939087351730131,-7.577574419409262e-05,5.82,4.66,0.08626068383455276,0.0002766741963569075,-0.18292683362960815,0.0234375,0.21240234375,0.22644379844676157,0.007323297762153647,0.2402971997582761,0.01208366821866027,1.345442838201804,1.34821802942868
1624632519.969312,0.08641265756472954,-7.554238400408598e-05,5.82,4.66,0.08626068383455276,0.0002766741963569075,-0.18292683362960815,0.0234375,0.21240234375,0.21105127812957325,-0.0021599166664200056,0.2402971997582761,0.01208366821866027,1.345193428151237,1.34821802942868
1624632519.969312,0.08641265756472954,-7.554238400408598e-05,5.82,4.66,0.011384067125618458,0.03297572582960129,-0.18292683362960815,0.0234375,0.21240234375,0.21105127812957325,-0.0021599166664200056,0.2402971997582761,0.01208366821866027,1.345193428151237,1.34821802942868
1624632519.969312,0.08641265756472954,-7.554238400408598e-05,5.82,4.66,0.011384067125618458,0.03297572582960129,-0.18292683362960815,0.0234375,0.21240234375,0.21105127812957325,-0.0021599166664200056,0.2402971997582761,0.01208366821866027,1.345193428151237,1.34821802942868
1624632519.969312,0.08641265756472954,-7.554238400408598e-05,5.82,4.66,0.011384067125618458,0.03297572582960129,-0.18292683362960815,0.0234375,0.21240234375,0.21105127812957325,-0.0021599166664200056,0.2402971997582761,0.01208366821866027,1.345193428151237,1.34821802942868
1624632519.969312,0.08641265756472954,-7.554238400408598e-05,5.82,4.66,0.011384067125618458,0.03297572582960129,0.9756097793579102,-0.01708984375,0.111328125,0.21105127812957325,-0.0021599166664200056,0.2399753420391958,0.005828839662620396,1.345193428151237,1.347774696452468
1624632519.969312,0.08427485372083493,-7.54129982408687e-05,5.82,4.66,0.011384067125618458,0.03297572582960129,0.9756097793579102,-0.01708984375,0.111328125,0.21105127812957325,-0.0021599166664200056,0.2399753420391958,0.005828839662620396,1.345193428151237,1.347774696452468
1624632519.969312,0.08427485372083493,-7.54129982408687e-05,5.82,4.66,0.011384067125618458,0.03297572582960129,0.9756097793579102,-0.01708984375,0.111328125,0.21105127812957325,-0.0021599166664200056,0.2399753420391958,0.005828839662620396,1.345193428151237,1.347774696452468
1624632519.969312,0.08427485372083493,-7.54129982408687e-05,5.82,4.66,3.3246243447138113e-07,3.09267397824442e-06,0.9756097793579102,-0.01708984375,0.111328125,0.21105127812957325,-0.0021599166664200056,0.2399753420391958,0.005828839662620396,1.345193428151237,1.347774696452468
1624632519.969312,0.08427485372083493,-7.54129982408687e-05,5.82,4.63,3.3246243447138113e-07,3.09267397824442e-06,0.9756097793579102,-0.01708984375,0.111328125,0.21105127812957325,-0.0021599166664200056,0.2358943529216784,0.0033806052803069587,1.345193428151237,1.347193859057475
1624632519.969312,0.08427485372083493,-7.54129982408687e-05,5.82,4.63,3.3246243447138113e-07,3.09267397824442e-06,0.9756097793579102,-0.01708984375,0.111328125,0.21105127812957325,-0.0021599166664200056,0.2358943529216784,0.0033806052803069587,1.345193428151237,1.347193859057475
1624632520.055312,0.0796337208728034,-7.44540939008926e-05,5.82,4.63,3.3246243447138113e-07,3.09267397824442e-06,0.9756097793579102,-0.01708984375,0.111328125,0.18623678246910752,-0.00031655075812009445,0.2358943529216784,0.0033806052803069587,1.3457549121526116,1.347193859057475
1624632520.055312,0.0796337208728034,-7.44540939008926e-05,5.82,4.63,3.3246243447138113e-07,3.09267397824442e-06,0.9756097793579102,-0.01708984375,0.111328125,0.18623678246910752,-0.00031655075812009445,0.2358943529216784,0.0033806052803069587,1.3457549121526116,1.347193859057475
1624632520.055312,0.0796337208728034,-7.44540939008926e-05,5.82,4.63,3.4057129028042255e-07,3.168104967699037e-06,0.9756097793579102,-0.01708984375,0.111328125,0.18623678246910752,-0.00031655075812009445,0.2358943529216784,0.0033806052803069587,1.3457549121526116,1.347193859057475
1624632520.055312,0.0796337208728034,-7.44540939008926e-05,5.82,4.63,3.4057129028042255e-07,3.168104967699037e-06,1.8902438879013062,-0.01513671875,-0.00830078125,0.18623678246910752,-0.00031655075812009445,0.23428186490351635,0.0016855269188671633,1.3457549121526116,1.3471383634416108
1624632520.055312,0.0796337208728034,-7.44540939008926e-05,5.82,4.63,3.4057129028042255e-07,3.168104967699037e-06,1.8902438879013062,-0.01513671875,-0.00830078125,0.18623678246910752,-0.00031655075812009445,0.23428186490351635,0.0016855269188671633,1.3457549121526116,1.3471383634416108
1624632520.0893118,0.07426398936625675,-7.275733782111792e-05,5.82,4.63,3.4057129028042255e-07,3.168104967699037e-06,1.8902438879013062,-0.01513671875,-0.00830078125,0.1698276464357289,-0.0003017475921957805,0.23428186490351635,0.0016855269188671633,1.345832161371573,1.3471383634416108
1624632520.0893118,0.07426398936625675,-7.275733782111792e-05,5.82,4.63,3.4057129028042255e-07,3.168104967699037e-06,1.8902438879013062,-0.01513671875,-0.00830078125,0.1698276464357289,-0.0003017475921957805,0.23428186490351635,0.0016855269188671633,1.345832161371573,1.3471383634416108
1624632520.0893118,0.07426398936625675,-7.275733782111792e-05,5.82,4.63,3.4057129028042255e-07,3.168104967699037e-06,1.8902438879013062,-0.01513671875,-0.00830078125,0.1698276464357289,-0.0003017475921957805,0.23428186490351635,0.0016855269188671633,1.345832161371573,1.3471383634416108
1624632520.0893118,0.07426398936625675,-7.275733782111792e-05,5.83,4.62,3.4057129028042255e-07,3.168104967699037e-06,1.8902438879013062,-0.01513671875,-0.00830078125,0.1698276464357289,-0.0003017475921957805,0.22674891165182268,0.0009586731183335069,1.345832161371573,1.34686069268785
1624632520.0893118,0.07426398936625675,-7.275733782111792e-05,5.83,4.62,3.4057129028042255e-07,3.168104967699037e-06,1.8902438879013062,-0.01513671875,-0.00830078125,0.1698276464357289,-0.0003017475921957805,0.22674891165182268,0.0009586731183335069,1.345832161371573,1.34686069268785
1624632520.149312,0.06748609996119187,-7.001291344779106e-05,5.83,4.62,3.4057129028042255e-07,3.168104967699037e-06,1.8902438879013062,-0.01513671875,-0.00830078125,0.14914208429599182,0.005845226964849935,0.22674891165182268,0.0009586731183335069,1.3460672362102044,1.34686069268785
1624632520.149312,0.06748609996119187,-7.001291344779106e-05,5.83,4.62,3.4057129028042255e-07,3.168104967699037e-06,1.8902438879013062,-0.01513671875,-0.00830078125,0.14914208429599182,0.005845226964849935,0.22674891165182268,0.0009586731183335069,1.3460672362102044,1.34686069268785
1624632520.149312,0.06748609996119187,-7.001291344779106e-05,5.83,4.62,3.4057129028042255e-07,3.168104967699037e-06,1.3414634466171265,-0.02197265625,0.00146484375,0.14914208429599182,0.005845226964849935,0.22674891165182268,0.0009586731183335069,1.3460672362102044,1.34686069268785
1624632520.149312,0.06748609996119187,-7.001291344779106e-05,5.83,4.62,3.4057129028042255e-07,3.168104967699037e-06,1.3414634466171265,-0.02197265625,0.00146484375,0.14914208429599182,0.005845226964849935,0.21828343584024965,0.0031205826140371217,1.3460672362102044,1.3468189412518814
1624632520.149312,0.06748609996119187,-7.001291344779106e-05,5.83,4.62,3.4057129028042255e-07,3.168104967699037e-06,1.3414634466171265,-0.02197265625,0.00146484375,0.14914208429599182,0.005845226964849935,0.21828343584024965,0.0031205826140371217,1.3460672362102044,1.3468189412518814
1624632520.209312,0.0596982348596459,-6.637207398972561e-05,5.83,4.62,3.4057129028042255e-07,3.168104967699037e-06,1.3414634466171265,-0.02197265625,0.00146484375,0.1301626604902275,0.005481497515456257,0.21828343584024965,0.0031205826140371217,1.3461173621887739,1.3468189412518814
1624632520.209312,0.0596982348596459,-6.637207398972561e-05,5.83,4.62,3.4057129028042255e-07,3.168104967699037e-06,1.3414634466171265,-0.02197265625,0.00146484375,0.1301626604902275,0.005481497515456257,0.20747755128613443,0.003977033409693447,1.3461173621887739,1.3468443833532624
1624632520.209312,0.0596982348596459,-6.637207398972561e-05,5.83,4.62,3.4057129028042255e-07,3.168104967699037e-06,1.3414634466171265,-0.02197265625,0.00146484375,0.1301626604902275,0.005481497515456257,0.20747755128613443,0.003977033409693447,1.3461173621887739,1.3468443833532624
1624632520.209312,0.0596982348596459,-6.637207398972561e-05,5.83,4.61,3.4057129028042255e-07,3.168104967699037e-06,1.3414634466171265,-0.02197265625,0.00146484375,0.1301626604902275,0.005481497515456257,0.20747755128613443,0.003977033409693447,1.3461173621887739,1.3468443833532624
1624632520.209312,0.0596982348596459,-6.637207398972561e-05,5.83,4.61,3.4057129028042255e-07,3.168104967699037e-06,1.3414634466171265,-0.02197265625,0.00146484375,0.1301626604902275,0.005481497515456257,0.20747755128613443,0.003977033409693447,1.3461173621887739,1.3468443833532624
1624632520.269312,0.05130613132021018,-6.20213566060664e-05,5.83,4.61,3.4057129028042255e-07,3.168104967699037e-06,1.3414634466171265,-0.02197265625,0.00146484375,0.11333471665097537,0.0030357245799105493,0.20747755128613443,0.003977033409693447,1.346056431283349,1.3468443833532624
1624632520.269312,0.05130613132021018,-6.20213566060664e-05,5.83,4.61,3.4057129028042255e-07,3.168104967699037e-06,1.3414634466171265,-0.02197265625,0.00146484375,0.11333471665097537,0.0030357245799105493,0.20747755128613443,0.003977033409693447,1.346056431283349,1.3468443833532624
1624632520.269312,0.05130613132021018,-6.20213566060664e-05,5.83,4.61,3.4057129028042255e-07,3.168104967699037e-06,1.2195122241973877,-0.013671875,0.01611328125,0.11333471665097537,0.0030357245799105493,0.19503467825252402,0.003547305049344211,1.346056431283349,1.3468367560908125
1624632520.269312,0.05130613132021018,-6.20213566060664e-05,5.83,4.61,3.4057129028042255e-07,3.168104967699037e-06,1.2195122241973877,-0.013671875,0.01611328125,0.11333471665097537,0.0030357245799105493,0.19503467825252402,0.003547305049344211,1.346056431283349,1.3468367560908125
1624632520.269312,0.05130613132021018,-6.20213566060664e-05,5.83,4.61,3.4057129028042255e-07,3.168104967699037e-06,1.2195122241973877,-0.013671875,0.01611328125,0.11333471665097537,0.0030357245799105493,0.19503467825252402,0.003547305049344211,1.346056431283349,1.3468367560908125
