time,la_x,la_y,uwb_x,uwb_y,vel_linear_x,vel_angular_z,mpu_ang_vel_z,mpu_linear_acc_x,mpu_linear_acc_y,odom_linear_x,odom_angular_z,odom_filtered_linear_x,odom_filtered_angular_z,odom_yaw,odom_filtered_yaw,cmd_linear_x,cmd_angular_z,var_x,var_y,var_xvel,var_yvel,vel_linear_y,odom_linear_y,odom_filtered_linear_y,cmd_linear_y
1626092574.640975,0.00024415673225362464,-6.703266605184659e-07,0.0,0.0,3.77452636257658e-07,-3.5111875149596017e-06,,,,-1.027914536697803e-07,0.0017325825963659528,7.921105795854587e-05,0.001598256412436392,-1.0344187480544873,-1.032859071580858,,,7.284273870498812,7.284418669910411,0.009261344087186789,0.009261344121778254,0.0,-5.346096572362352e-07,-7.474829638014549e-07,
1626092574.7149749,0.00023616330049332888,-6.489036623447697e-07,5.76,4.86,3.77452636257658e-07,-3.5111875149596017e-06,1.2804877758026123,-0.01171875,0.00244140625,-1.0245691626671763e-07,0.0016797136275322527,7.570399748070294e-05,0.001575500783942091,-1.0344203452640202,-1.0328280378389845,,,7.285152689086519,7.285297488500397,0.010342893682132013,0.010342893710683053,0.0,-5.271805155424824e-07,-7.382090761999982e-07,
1626092574.760975,0.00022852829024316325,-6.27988658028966e-07,5.76,4.89,3.7516502970902366e-07,-3.4899076126748696e-06,1.3414634466171265,-0.009765625,0.0087890625,-1.0226612926551296e-07,0.001906745281366934,6.378286298842976e-05,0.0016739768628652027,-1.034413284762036,-1.0328491222686917,,,7.285891693269185,7.286036492681347,0.010192403503500824,0.010192403524767756,0.0,-5.169741938351135e-07,-7.008384257083781e-07,
1626092574.820975,0.00022077453064982535,-6.065707308045212e-07,5.78,4.91,3.77452636257658e-07,-3.5111875149596017e-06,1.3414634466171265,-0.0185546875,0.00927734375,-1.0209480376716576e-07,0.0015910765072421275,5.32929263092099e-05,0.0015544083312374764,-1.0344240956813704,-1.032873308888866,,,7.2866334271677715,7.2867782265785435,0.00995928941241796,0.009959289428065211,0.0,-5.048965915426091e-07,-6.629899931221003e-07,
1626092574.880975,0.00021302053862687147,-5.849853311751398e-07,5.77,4.92,3.7516502970902366e-07,-3.4899076126748696e-06,1.2195122241973877,-0.0078125,-0.0029296875,-1.0103990945560945e-07,0.0018612761481228252,4.528515290919891e-05,0.0016951299590754075,-1.0343956026606929,-1.0328659364408195,,,7.287437017809291,7.287581817219595,0.009959424800926889,0.009959424812422164,0.0,-4.93039961487246e-07,-6.287675845528412e-07,
1626092574.9029748,0.00020684059266000494,-5.681313675083033e-07,5.78,4.92,3.77452636257658e-07,-3.5111875149596017e-06,1.402438998222351,-0.00537109375,0.00341796875,-1.0202108982921953e-07,0.001756561520087121,3.64123767519139e-05,0.001643641606369439,-1.0344173162781813,-1.032910830469057,,,7.28812254744297,7.288267346851941,0.009303706660352174,0.009303706668490109,0.0,-4.777631306124349e-07,-5.900744372822098e-07,
1626092574.940975,0.00020095106756919709,-5.515403750398028e-07,5.79,4.92,3.7516502970902366e-07,-3.4899076126748696e-06,1.2804877758026123,-0.009765625,0.0048828125,-1.0194126797859597e-07,0.0018279417997583867,3.4808511790695655e-05,0.0016771044981698567,-1.0344143676657687,-1.032865152768335,,,7.288999115549742,7.2891439149603965,0.010394475998983257,0.010394476005407662,0.0,-4.6384170462606444e-07,-5.717805516761338e-07,
1626092575.006975,0.00019457247351323164,-5.335406226344672e-07,5.79,4.93,3.77452636257658e-07,-3.5111875149596017e-06,1.3414634466171265,-0.0068359375,0.0146484375,-1.0201795286399385e-07,0.0016755008010823653,2.8485617395248775e-05,0.001645818199615625,-1.0344194036286782,-1.0328312574262781,,,7.289963220817608,7.2901080202279775,0.010342990128788785,0.01034299013302791,0.0,-4.4673055791894524e-07,-5.357991801816513e-07,
1626092575.0609748,0.00018821770584450287,-5.153673976654017e-07,5.79,4.91,3.7516502970902366e-07,-3.4899076126748696e-06,1.2804877758026123,-0.00537109375,0.00732421875,-1.0200695304627117e-07,0.001882514494508689,2.4355604233994006e-05,0.0017720762124213358,-1.0344114234846895,-1.0328287315598697,,,7.290482135164987,7.290626934574691,0.009953417115398908,0.00995341711854977,0.0,-4.368593554367916e-07,-5.130680465221651e-07,
1626092575.120975,0.00018178525474954032,-4.968545258219348e-07,5.76,4.93,0.056725695729255676,-0.016223249956965446,1.3414634466171265,0.0,0.01123046875,0.032921494267335,0.002214643370108171,0.0015241351531653806,0.0018575215484880243,-1.0344000466054124,-1.0328315208888619,0.5,0.0,7.2910107292999795,7.291155528709032,0.009227001288657687,0.00922700129095762,0.0,-3.833509897748222e-07,-4.908790406987185e-07,0.0
1626092575.180975,0.0001753672750637005,-4.782732150914429e-07,5.73,4.94,0.41941553354263306,0.0010863005882129073,1.1585365533828735,0.16162109375,-0.15380859375,0.10098396594641473,0.006220484594081151,0.05501621260680346,0.004344240226694652,-1.0337205833221046,-1.032509091099787,0.5,0.0,7.291978986990627,7.292123783973217,0.009270279283416047,0.009270288620262685,0.0,3.358322699895384e-06,8.671248330593642e-07,0.0
1626092575.2149749,0.00016998275358868326,-4.632259718672536e-07,5.75,4.87,0.5214589834213257,0.000526155810803175,1.585365891456604,0.10693359375,-0.11962890625,0.15343634733067157,0.00623025849524831,0.109191605271174,0.004945654647255638,-1.0343565810216246,-1.0319598311168894,0.5,0.0,7.29289842546953,7.293043183531404,0.009406196481904945,0.009406259568370273,0.0,-3.749612453181532e-05,-1.5019262255052181e-05,0.0
1626092575.240975,0.0001651905064129421,-4.4917674246909097e-07,5.74,4.76,0.5035374760627747,0.01581951230764389,3.7804877758026123,-0.4462890625,0.01220703125,0.21513799787593219,0.010417780484248643,0.17221443569572903,0.010046143727839796,-1.0322718634667851,-1.030647921749268,0.5,0.0,7.294150281695439,7.294294812401048,0.010392420296412208,0.010392624820982656,0.0,-1.3020778309403022e-05,-2.650555413708651e-05,0.0
1626092575.3009748,0.00016011504987070805,-4.3421991834519795e-07,5.7,4.62,0.4320983588695526,-0.016433879733085632,1.097561001777649,-0.3974609375,-0.0244140625,0.23816445991109594,0.007630913032837627,0.21710990025776375,0.00548281006371123,-1.0336305540244155,-1.031098876733161,0.5,0.0,7.295337049027134,7.295481073153398,0.010211129020445181,0.010211525617103827,0.0,-5.7222198425086964e-05,-2.8955003307490457e-05,0.0
1626092575.360975,0.0001548801713061334,-4.1872035403430324e-07,5.67,4.58,0.049594055861234665,-0.016474144533276558,-0.5487805008888245,0.04541015625,0.16943359375,0.2200309889266931,0.009954313745086329,0.23913257599334223,0.010372187885892045,-1.0328913320086768,-1.030897976018715,0.5,0.0,7.296708650035399,7.296851842934936,0.009967469896912001,0.009968085578235562,0.0,-6.679121248409091e-05,-5.3187504073702264e-05,0.0
1626092575.420975,0.00014958253750028394,-4.029630962025273e-07,5.65,4.5,0.10208996385335922,0.03285292536020279,1.5243902206420898,-0.00732421875,0.00439453125,0.1900595081521878,0.005991066170770937,0.2238003370479468,0.008245843175472898,-1.0327590610286577,-1.0311091992248016,0.5,0.0,7.297737001342876,7.2978795120780315,0.009347456703109073,0.00934819667435649,0.0,-4.488746472157144e-05,-5.753922338097009e-05,0.0
1626092575.480975,0.00014429796508256062,-3.871791085760546e-07,5.67,4.5,0.5092103481292725,-0.03402591869235039,1.8292683362960815,0.20654296875,-0.2021484375,0.1890541036427689,0.00837492692724347,0.21477846281383642,0.007854086692656715,-1.0307674420537127,-1.0306038206382924,0.5,0.0,7.299438136801577,7.299579534113222,0.00929386632489091,0.009294681725754823,0.0,-7.0465879048000105e-06,-4.0679944615544335e-05,0.0
1626092575.506975,0.00014001626761186195,-3.747801652073089e-07,5.7,4.43,0.4597955644130707,-0.015883658081293106,-3.47560977935791,0.01904296875,0.14892578125,0.2133753380629277,0.003997007267913811,0.21891146592857183,0.0009196166353727972,-1.032594355850745,-1.0315865569911506,0.0,0.0,7.300886608083643,7.3010270463815985,0.00941236237590944,0.009413192401975174,0.0,-3.656037583026372e-05,-3.424982105260365e-05,0.0
1626092575.5409749,0.0001360316936632957,-3.6276438123004135e-07,5.48,4.71,0.011864328756928444,7.748232746962458e-06,1.4634146690368652,0.00830078125,0.19775390625,0.19937105209739087,0.008325372131297344,0.22561738828334116,0.007599275050280927,-1.0310505892174429,-1.030721606668368,0.0,0.0,7.302587635170968,7.302726948656363,0.0103940499832503,0.01039494395568054,0.0,-9.950050711730545e-06,-2.5193538131140012e-05,0.0
1626092575.610975,0.00013164303098516092,-3.4964006469729104e-07,5.59,4.49,4.110634961307369e-07,-3.823846782324836e-06,0.6097561120986938,-0.0244140625,0.00244140625,0.12294889248123124,0.004816284600923622,0.19039057129533837,0.005757729126854593,-1.0297142616852994,-1.0293943793170341,0.0,0.0,7.303875331431281,7.304013825334117,0.010211537748691435,0.010212416450193962,0.0,-1.0833155138818504e-05,-1.727170145890772e-05,0.0
1626092575.660975,0.00012736289835813021,-3.366239427526089e-07,5.64,4.34,4.110634961307369e-07,-3.823846782324836e-06,1.4634146690368652,-0.00439453125,0.01611328125,0.06998935616000715,0.002860974800166428,0.13346196574010963,0.0033940042888989993,-1.0297333294474016,-1.0289982807073594,0.0,0.0,7.304952440738928,7.305090413612161,0.009967526020323305,0.009968278821149023,0.0,-2.387215835655995e-06,-9.747402615150915e-06,0.0
1626092575.721103,0.00012302196741297876,-3.2338676288158564e-07,5.66,4.26,4.0855698557606956e-07,-3.800530521402834e-06,1.2804877758026123,-0.0087890625,0.00830078125,0.03957542346835458,0.0021643788068770333,0.08245187350693765,0.0022509723273790245,-1.029772474784927,-1.0290036816328565,0.0,0.0,7.305848382972219,7.305986132753687,0.009724776831505627,0.009725334803662581,0.0,1.7462546012063576e-06,-2.7158313815496695e-06,0.0
1626092575.781103,0.00011868715378395039,-3.1013699960932317e-07,5.68,4.23,4.0855698557606956e-07,-3.800530521402834e-06,1.2804877758026123,-0.005859375,0.01220703125,0.022370997775751925,0.0019723419282256962,0.04519578381651466,0.0019586323409470055,-1.0297810612086815,-1.0289837979575576,0.0,0.0,7.3066511918459485,7.306788872370462,0.009290345180170217,0.009290718413049844,0.0,3.6945227138425493e-06,2.052787442825114e-06,0.0
1626092575.799103,0.00011529642651464096,-3.0002057016510044e-07,5.68,4.37,0.0008764292579144239,0.2489451915025711,1.402438998222351,-0.0166015625,0.00537109375,0.012413682064754083,0.012514673222239222,0.020268052041116143,0.0059562963319449574,-1.0297071072804316,-1.0286227303461921,0.0,1.0,7.30751725430999,7.307654930557174,0.009411107309759652,0.009411342296335473,0.0,4.47705235451861e-06,5.003638595932682e-06,0.0
1626092575.841103,0.00011199271900675363,-2.8985899625505987e-07,5.67,4.3,0.00832096952944994,0.9061464071273804,-43.10975646972656,-0.029296875,-0.0029296875,0.00499574671345674,0.1764241424486656,0.0034680594561727965,0.14216152042589977,-0.9527118387174864,-0.9968717198970809,0.0,1.0,7.308571796256619,7.308709502955504,0.01039366118489059,0.010393803546653809,0.0,-3.9487889327205014e-05,-4.573926225502606e-06,0.0
1626092575.9031029,0.00010848140131878958,-2.79070417778477e-07,5.64,4.25,0.016532883048057556,0.9394417405128479,-54.93902587890625,0.0380859375,0.056640625,0.0008598115058904973,0.15127580202422936,-0.0051630513520469,0.17675590702145647,-0.6964120689608446,-0.8883761937767121,0.0,1.0,7.309615416628015,7.309753147879425,0.010201711087107207,0.010201792407507642,0.0,-0.0001657271635732099,-5.0871518770977444e-05,0.0
1626092575.961103,0.00010491168162784234,-2.6805500505095344e-07,5.62,4.24,0.0028843581676483154,0.08285395801067352,-20.487804412841797,0.06884765625,0.060546875,-0.00206641746576752,0.1495153126134448,-0.01020793808426768,0.200543789852046,-0.5317559366313456,-0.697510862643637,0.0,0.0,7.310755600685414,7.310893338879912,0.00996966105256469,0.009969705501199253,0.0,-0.0003791132803786965,-0.00018602537192911975,0.0
1626092576.021103,0.00010130646458881011,-2.569171301998273e-07,5.6,4.22,5.923701564825024e-07,5.510420123755466e-06,1.585365891456604,-0.01171875,0.0048828125,-0.0019309333006442826,0.03234247113927706,-0.01254352688968802,0.09731898051021272,-0.4879964815842743,-0.5504873856570512,0.0,0.0,7.311870751201859,7.312008491311664,0.009730675027234176,0.009730698421388004,0.0,-0.0003015141000712875,-0.0002934977685288842,0.0
1626092576.081103,9.77153561378471e-05,-2.4581385840233315e-07,5.6,4.21,0.010725261643528938,-0.08223523199558258,2.0731706619262695,0.0048828125,-0.00244140625,0.021917329728360108,0.009896015959877772,-0.011013528541827853,0.029374956706150417,-0.489010237986669,-0.517739535388486,0.5,0.0,7.312595280289977,7.31273302284422,0.00967762049543957,0.00967763432118777,0.0,-0.00025456801582421395,-0.0003032035729269138,0.0
1626092576.111103,9.475697446846408e-05,-2.3705232331530937e-07,5.6,4.2,0.36242222785949707,0.016930749639868736,-0.8536585569381714,-0.1318359375,-0.412109375,0.08550364735514825,0.008136050694809042,0.037308570557706755,0.006254482512168488,-0.5013130259534995,-0.5062014949575189,0.5,0.0,7.313511212141775,7.313648953210591,0.009437130634122446,0.009437146195202743,0.0,-0.00028507588062359957,-0.0002947792333520621,0.0
1626092576.141103,9.20665506663422e-05,-2.286688153837061e-07,5.59,4.16,0.534515917301178,0.04846047982573509,0.6097561120986938,0.16650390625,-0.27734375,0.15850798307448452,0.029548786246455842,0.09160893072163152,0.02496639187675992,-0.4941164284477425,-0.4991861516732881,0.5,0.0,7.314552176218987,7.314689940199354,0.010401684933527373,0.010401748325450039,0.0,-0.00015179132284615345,-0.00027096404080413937,0.0
1626092576.215103,8.905208358648984e-05,-2.194628253516578e-07,5.57,4.08,0.48882564902305603,0.01627824269235134,5.4268293380737305,-0.2607421875,0.0029296875,0.20792150817026428,0.012161299692559756,0.1526082046598521,0.01713844786090577,-0.4897172413649093,-0.4923342536997686,0.5,0.0,7.315468758184338,7.315606675129599,0.010259366057434473,0.010259532467367773,0.0,4.316510585795056e-06,-0.00015122239574912375,0.0
1626092576.261103,8.61727396926648e-05,-2.1047055936363396e-07,5.53,4.0,0.36789119243621826,0.01625361479818821,0.18292683362960815,-0.1005859375,0.154296875,0.23265691724793824,0.013025769410287524,0.19244006168540875,0.0138484820007677,-0.48964172502654074,-0.4893907493943743,0.0,0.0,7.316294535153737,7.3164327671644385,0.009882060368283468,0.009882357938188454,0.0,-1.9251051747493412e-05,-7.506764643368004e-05,0.0
1626092576.3211029,8.324865900424222e-05,-2.0134767092830325e-07,5.47,3.9,0.005540733691304922,0.01679893210530281,2.195122003555298,0.0009765625,0.13720703125,0.20139767537810166,0.003417500244104255,0.2216367871223927,0.005499091398296915,-0.4882260713148889,-0.48749154493419117,0.0,0.0,7.3178636199807805,7.318002787941948,0.009727329721282076,0.009727892769550606,0.0,-1.4889804512564334e-05,-3.0844592672305254e-05,0.0
1626092576.381103,8.032452767657707e-05,-1.9223714255583945e-07,5.45,3.85,4.0632453419675585e-06,3.779763210332021e-05,1.402438998222351,-0.01708984375,0.017578125,0.13724426868871697,0.0030125164006418615,0.1950098463711444,0.0031172670200346245,-0.4878062158086065,-0.487277466276435,0.5,0.0,7.319023241331085,7.319163255729806,0.00967227640828092,0.009672975056100784,0.0,-1.3393862996072364e-06,-1.2456632450219273e-05,0.0
1626092576.4031029,7.799410659390028e-05,-1.8522741708243076e-07,5.44,3.82,0.24081167578697205,0.017476748675107956,0.4878048896789551,0.10498046875,-0.23193359375,0.17558858096713464,0.005376237232960591,0.17955948888679588,0.002441617092803748,-0.48742654857336354,-0.48719577800559055,0.5,0.0,7.3205006103579535,7.320641555921775,0.010621365776163377,0.010622088685667521,0.0,1.7925290282905157e-05,1.0449106178691462e-05,0.0
1626092576.441103,7.577309643924696e-05,-1.7828090222234448e-07,5.41,3.8,0.5409594178199768,0.0011258337181061506,-3.1097562313079834,-0.05517578125,0.03857421875,0.1824439314731576,0.009504615695417348,0.17969904823431052,0.008842441451623037,-0.4875920462613786,-0.48579386613496367,0.0,0.0,7.321936953897635,7.32207877338975,0.010439396322049523,0.010440081442197763,0.0,3.947081334105454e-07,2.83089896982185e-05,0.0
1626092576.507103,7.336771963346022e-05,-1.7084670890482963e-07,5.36,3.74,0.084752157330513,0.01588541269302368,2.012195110321045,0.08251953125,0.1640625,0.19533164713200127,0.0025003542282050627,0.19116184408744624,0.005696624637654373,-0.4871239260951221,-0.48593153548948376,0.0,0.0,7.322755831242455,7.322898144299545,0.010052652660497126,0.010053302529414488,0.0,-2.112221196920978e-05,1.2324620688279402e-05,0.0
1626092576.5611029,7.097131432633285e-05,-1.6337962545156556e-07,5.34,3.7,4.492408152145799e-06,4.1789840906858444e-05,1.402438998222351,-0.00634765625,-0.0166015625,0.13033879580066177,0.0009963818248785639,0.17686758284572734,0.0012528458458002081,-0.4865860747629903,-0.4861546079985669,0.0,0.0,7.324260971448457,7.324404268198692,0.009981342411072116,0.00998201166372889,0.0,-1.223433345337738e-05,6.262332716868596e-07,0.0
1626092576.621103,6.854563671281175e-05,-1.558426217166766e-07,5.31,3.66,4.492408152145799e-06,4.1789840906858444e-05,1.2195122241973877,-0.00830078125,0.01806640625,0.07476683343400804,0.002238349445329527,0.1295787170967622,0.002302476267175429,-0.48650104918438547,-0.48601837951885285,0.0,0.0,7.325306543238194,7.325450386652338,0.009727323697165963,0.009727931808475388,0.0,1.90538898517258e-06,3.507174927367708e-06,0.0
1626092576.681103,6.612543941184915e-05,-1.483457192835819e-07,5.31,3.64,0.13813233375549316,0.0005382033996284008,0.4878048896789551,0.02294921875,0.185546875,-0.03201666600423556,0.0020715484874688733,0.068766405792837,0.0020707689179081776,-0.48603856671929574,-0.48596151464762083,-0.5,0.0,7.326120088603226,7.326264204911731,0.009672202071746126,0.009672707160754912,0.0,1.0088716765813148e-05,9.914361281962519e-06,0.0
1626092576.715103,6.409513508976059e-05,-1.4240876240635344e-07,5.31,3.67,0.512737512588501,1.5265939055097988e-06,0.9146341681480408,-0.5927734375,0.23095703125,-0.10042482988891235,0.0027721477320939098,-0.026609983021962855,0.0027156898268855686,-0.4860346035785,-0.4852171061338558,-0.5,0.0,7.327083686844567,7.327227740908706,0.01039399345089957,0.010394350143586629,0.0,1.4657019663760461e-05,1.4795132047639146e-05,0.0
1626092576.741103,0.0008514434948225991,-1.3712366729864893e-07,5.35,3.71,0.23662307858467102,-4.6257293433882296e-05,-1.1585365533828735,0.07080078125,-0.1689453125,-0.17824967812270084,-0.0043057420960221065,-0.12414434289679753,-0.0008439141359898987,-0.48767855035294483,-0.4852599510113092,0.0,0.0,7.328128653958085,7.328272503190497,0.01039866042178195,0.010398937250674697,0.0,8.439982074247484e-05,4.3595893736689485e-05,0.0
1626092576.8011029,0.0033600545526469073,-1.277291513114163e-07,5.36,3.73,4.568424628814682e-06,-4.2496973037486896e-05,1.2804877758026123,-0.00048828125,-0.13525390625,-0.1475937404418219,0.0015957419130789062,-0.16284519613380039,-0.0011724133646674104,-0.48760577938305,-0.4865392443399509,0.0,0.0,7.328831474372251,7.328975377819735,0.01003936957872674,0.010039671211232259,0.0,9.425035527180583e-05,7.32460928246308e-05,0.0
1626092576.861103,0.007320194636957052,-1.0225102128212481e-07,5.37,3.75,4.568424628814682e-06,-4.2496973037486896e-05,1.2804877758026123,-0.0048828125,0.013671875,-0.08731163753135351,0.002405755876098121,-0.1507846370289797,0.0019412040914328628,-0.4871785420312204,-0.48676268653620686,0.0,0.0,7.330185921696021,7.330330309787243,0.010009943526608922,0.01001032007601077,0.0,8.403101661215638e-05,9.310382736125455e-05,0.0
1626092576.921103,0.012475017750606979,-7.154261920159556e-09,5.39,3.78,4.540568625088781e-06,-4.223784708301537e-05,1.2195122241973877,-0.0087890625,0.01025390625,-0.04974342761709638,0.0020871266292991643,-0.1121957380654262,0.0020904215740852965,-0.48717408958977243,-0.4866596491963876,0.0,1.0,7.331137245357761,7.331282005568279,0.009686283384155425,0.009686625958123645,0.0,7.003917123415375e-05,8.997627333390084e-05,0.0
1626092576.981103,0.018799354547601243,1.9830000701279797e-07,5.41,3.78,0.002365183550864458,0.5601735711097717,-22.621952056884766,0.00439453125,-0.07666015625,-0.02844393158814601,0.17134547597456723,-0.07559901516304504,0.11235843542498912,-0.46034903333810573,-0.46905531112055243,0.0,1.0,7.332028477506904,7.3321734530078775,0.009382033964649152,0.00938229421953002,0.0,5.5016824017017546e-05,7.793580186298533e-05,0.0
1626092577.007103,0.02333856714228784,3.5587726294069213e-07,5.44,3.72,0.009516898542642593,1.0126264095306396,-54.817073822021484,-0.05322265625,0.0546875,-0.017399544920107913,0.21569046374023243,-0.05336640725501932,0.21816743401551286,-0.298554911189019,-0.3802585017061054,0.0,1.0,7.333332450833062,7.333477569622857,0.010424967092885278,0.010425165772516738,0.0,6.29464565337158e-05,7.303447212968148e-05,0.0
1626092577.041103,0.027480081874961745,5.777567399220255e-07,5.45,3.78,0.004266371950507164,0.36289364099502563,-55.853660583496094,-0.015625,-0.01123046875,-0.012600437163270917,0.1957517032745101,-0.034220947889316844,0.232140386250007,-0.07756712999312838,-0.20055674760319242,0.0,0.0,7.3346880977606075,7.334833282711731,0.010241216433645525,0.010241345491818337,0.0,-2.5677465414594588e-05,4.206804264648584e-05,0.0
1626092577.111103,0.03165482016835857,2.7123129255308906e-07,5.45,3.81,4.598931354848901e-06,-4.278075721231289e-05,0.792682945728302,0.0087890625,0.0224609375,-0.007176321781694854,0.04496877404513281,-0.02179929789301101,0.15468022735832954,-0.006360223167017153,-0.04952862182630156,0.0,0.0,7.335991089667684,7.336136313270302,0.010048092445061092,0.01004817281032915,0.0,-2.2180493343593636e-05,-1.0742558666867851e-06,0.0
1626092577.161103,0.036308006900491074,-9.947247202802147e-07,5.45,3.8,4.598931354848901e-06,-4.278075721231289e-05,1.3414634466171265,0.0,-0.001953125,-0.004728327258085492,0.014400420293658286,-0.01308855424196847,0.03506857007802264,-0.00718282542869526,-0.017354302050394944,0.5,0.0,7.336855977051035,7.337001218244038,0.00971704524535315,0.009717093737602652,0.0,-2.09392173712173e-05,-1.5200910237672e-05,0.0
1626092577.221103,0.04151910597443653,-2.8817869736039673e-06,5.45,3.8,0.17998899519443512,0.03265421837568283,-0.060975611209869385,0.0966796875,-0.2421875,0.08090561486682875,0.001596360353530333,0.02842818756339405,0.007354622633212532,-0.016514487578153065,-0.012053172871295892,0.5,0.0,7.337605096483571,7.337750333610967,0.009350260536556325,0.00935029116544812,0.0,-2.6190138988668805e-05,-2.043123438883176e-05,0.0
1626092577.281103,0.04720199057456034,-5.590834128376895e-06,5.41,3.8,0.5445576906204224,0.03218699246644974,1.6463414430618286,-0.3212890625,-0.09814453125,0.12116447631675371,0.028146809007598115,0.0814185497264649,0.014470654189224746,-0.01777407819519557,-0.013079618141418474,0.5,0.0,7.338412155540223,7.338557393228816,0.009112273536971178,0.009112328166439176,0.0,-0.00012053211295435552,-7.49994920393466e-05,0.0
1626092577.299103,0.051154143859173044,-7.602835557271939e-06,5.35,3.78,0.49756425619125366,0.033779628574848175,3.2317073345184326,0.1669921875,-0.3955078125,0.19699229188482648,0.02931620390832268,0.1454767878977375,0.028306257687871955,-0.008123808359571627,-0.0066448101564126885,0.5,0.0,7.33964652733341,7.339792014838839,0.010429655897516297,0.010429801982588862,0.0,0.00011003839464311783,-1.442971110773804e-05,0.0
1626092577.341103,0.0558628659578448,-1.0630617215753528e-05,5.23,3.63,0.4957638084888458,0.01582624949514866,0.060975611209869385,-0.162109375,-0.21728515625,0.22773445633057443,0.005458289225813655,0.19786082459844606,0.012429755819979637,-0.008172474003142166,-0.004435770143498452,0.0,0.0,7.340736849726222,7.340883086382915,0.010239898741020628,0.010240202607060038,0.0,5.622746396201578e-05,4.428430614619267e-05,0.0
1626092577.4031029,0.060856101940975925,-1.276598547600096e-05,5.14,3.55,0.12810921669006348,0.015369068831205368,2.5,-0.07275390625,0.09326171875,0.22711535848130918,0.007715356835348751,0.22650719089269694,0.009876825340806342,-0.006772570132795437,-0.0048341888967184605,0.0,0.0,7.341652818811726,7.341800025159712,0.009752177611553996,0.009752634530880407,0.0,4.23155756284696e-05,4.748433167260435e-05,0.0
1626092577.461103,0.06589563999377086,-1.3435929290409436e-05,5.09,3.53,3.4018542010016972e-06,3.164515510434285e-05,1.3414634466171265,-0.0048828125,0.0068359375,0.157013026857599,0.007939882699871755,0.21828227807964592,0.0077538283456662265,-0.005496086369351494,-0.004433822590801702,0.0,0.0,7.34334510570082,7.343494447101593,0.009739477109809607,0.009740157542727274,0.0,4.070075858423455e-05,4.6790749838587256e-05,0.0
1626092577.521103,0.07071329292049497,-1.3273462813683958e-05,5.08,3.57,3.3606197575863916e-06,3.126157753285952e-05,1.402438998222351,0.00048828125,0.02392578125,0.09040434927270999,0.00380001847760192,0.16374290259788904,0.004578155518894099,-0.005547743059526955,-0.00443498352982498,0.0,0.0,7.344574000436329,7.344724852685553,0.00935485693843555,0.009355554274684933,0.0,4.5317588815470875e-05,4.7918001854820555e-05,0.0
1626092577.581103,0.07512901631848341,-1.1896692919671126e-05,5.09,3.62,0.007339111994951963,-0.2969447374343872,16.707317352294922,-0.02294921875,0.04248046875,0.050848314869373044,-0.09335621736476046,0.10755375540423014,-0.058520132979403984,-0.008892999890614785,-0.009508027721536088,0.0,-1.0,7.345617042832228,7.345768764780824,0.009112534343669793,0.009113105180275138,0.0,3.292254580535473e-05,4.536351462768869e-05,0.0
1626092577.611103,0.07780429943204618,-1.0844883512334128e-05,5.08,3.61,0.014346757903695107,-0.9236177802085876,48.53658676147461,0.05908203125,0.07568359375,0.02685815347719705,-0.18826517877709129,0.06382735637422075,-0.1753876579355758,-0.12473045594610625,-0.07256517799188053,0.0,-1.0,7.347008609582791,7.347160806198862,0.010429226765115785,0.010429648540094606,0.0,5.906154138256528e-05,4.728333346422944e-05,0.0
1626092577.641103,0.08090800690815637,-9.269091405769998e-06,5.09,3.64,0.008770307525992393,-0.9405370950698853,56.34146499633789,0.00634765625,0.0185546875,0.017619314019220542,-0.1706141768943092,0.03594972823235106,-0.2000981799141769,-0.33700647486899543,-0.21358327270227073,0.0,-1.0,7.3481867380932835,7.348339009492337,0.010247618455635028,0.010247895505586758,0.0,7.034977497198655e-05,5.821573252105851e-05,0.0
1626092577.701103,0.08376516942696347,-8.25118704605936e-06,5.05,3.58,0.015310833230614662,-0.9951110482215881,55.914634704589844,0.16064453125,-0.03515625,0.009972231077013144,-0.16986547186260062,0.01855352063799832,-0.22345132911061316,-0.6109082886425615,-0.42042383890310464,0.0,-1.0,7.349435711578241,7.349588006294623,0.010047746555110478,0.010047919002229547,0.0,0.00013208950351441414,6.459393390538217e-05,0.0
1626092577.761103,0.08625546605797937,-9.089866769339453e-06,5.08,3.57,0.0027005821466445923,0.10031073540449142,14.390244483947754,-0.021484375,-0.06494140625,0.009272701066736524,-0.18166560493290787,0.00798990484341175,-0.2460252667351809,-0.8349786846944625,-0.6478306964516252,0.0,-1.0,7.350777015500007,7.350929313587334,0.010025007945158211,0.010025112287611297,0.0,-0.00019405786598267725,4.832232278738734e-05,0.0
1626092577.8211029,0.0883801815214644,-1.197632660350823e-05,5.18,3.62,0.002143557881936431,0.016441721469163895,0.24390244483947754,-0.0009765625,0.00830078125,0.00636571987013284,-0.030480991754897796,0.0021627479498816386,-0.13864164807129647,-0.8642513450015216,-0.8388279039248137,0.0,-1.0,7.352564116573894,7.352716414502552,0.009800087361279776,0.00980014013504494,0.0,-0.00018287879762982203,-0.00011924451252451991,0.0
1626092577.881103,0.08993981385365205,-1.5190930319112288e-05,5.2,3.63,3.1055378713062964e-06,-2.8888724045827985e-05,1.3414634466171265,0.0,0.00146484375,0.0034390366585036534,-0.0011605875390957232,-0.00034177978155849333,-0.026842281355447188,-0.861753058641707,-0.8555646491566028,0.0,-1.0,7.3532142820777615,7.3533665799007855,0.00913582679923302,0.00913585864572999,0.0,-0.0001503774040829561,-0.00014994557264716473,0.0
1626092577.9031029,0.09054850941783846,-1.7426582918222286e-05,5.24,3.65,3.1055378713062964e-06,-2.8888724045827985e-05,1.3414634466171265,-0.00048828125,0.0146484375,0.00189501778977152,0.0014513897672687954,-0.003996159770343668,-0.002014135592840217,-0.8614566122141167,-0.8595493276597609,0.0,-1.0,7.35427050885222,7.354422805946989,0.010430997962330065,0.01043101516406651,0.0,-0.00012184652410350735,-0.000154491037273985,0.0
1626092577.941103,0.09110862460699165,-1.9409947852943164e-05,5.25,3.66,0.012224928475916386,-0.21492861211299896,2.0731706619262695,-0.0078125,0.01611328125,0.0009720462422188217,-0.12592506345139157,-0.005376836062288014,-0.07239357898451002,-0.8658952871639461,-0.8685983625002933,0.0,-1.0,7.355236855551142,7.355389152423166,0.010412733578645786,0.010412741382706925,0.0,-9.126608183672457e-05,-0.0001327025957995166,0.0
1626092578.007103,0.0904609305438592,-2.1180581663663047e-05,5.27,3.67,0.002840567147359252,-0.099187470972538,8.292682647705078,-0.01171875,-0.0146484375,0.0022198452403368926,-0.1298666460728103,-0.005016713383248849,-0.13790454106778205,-0.9790680531094388,-0.9246781479376188,0.0,0.0,7.356562146360565,7.356714442478262,0.010767463918407121,0.010767468075893226,0.0,-0.000100608474202649,-0.00012040334237162612,0.0
1626092578.0611029,0.08858652126112229,-2.251753601146933e-05,5.2,3.68,0.0021440484561026096,0.01643715798854828,0.7317073345184326,0.0,0.0,0.0012274145863853728,-0.03744795841285601,-0.0041988345567800685,-0.12438222101923298,-0.9863080256895959,-0.9676975561037058,0.0,0.0,7.357232942858049,7.357385239353441,0.010176187753368765,0.010176190680979793,0.0,-7.132515410245839e-05,-0.00010774040809164263,0.0
1626092578.121103,0.08504150987160738,-2.3121172005492543e-05,5.24,3.69,4.838693257624982e-06,4.501110015553422e-05,1.2804877758026123,-0.00537109375,0.00390625,0.0006523894497931353,-0.007922516277144227,-0.003826533558421663,-0.026112317974883642,-0.984476323418147,-0.9823471427068444,0.0,0.0,7.358058045477624,7.358210341974335,0.00977163076412366,0.009771633218720932,0.0,-5.506541200237494e-05,-8.629931792141938e-05,0.0
1626092578.181103,0.07978990626337858,-2.31356865156122e-05,5.19,3.68,4.838693257624982e-06,4.501110015553422e-05,1.2804877758026123,-0.00244140625,0.00390625,0.0003672125402964301,0.0002347183380896623,-0.0035190906360940137,-0.004590349148717872,-0.9840215301423216,-0.9846789438572173,0.0,0.0,7.358804883365938,7.358957179618639,0.009402032366897479,0.0094020348393172,0.0,-4.1588814684950823e-05,-6.620232471875938e-05,0.0
1626092578.195103,0.07609684284814172,-2.315810689064361e-05,5.2,3.67,4.838693257624982e-06,4.501110015553422e-05,1.402438998222351,-0.00439453125,0.01025390625,0.0002078846269316747,0.0013653990283102675,-0.0031369171030431477,0.0006363946003815529,-0.9839355962919255,-0.9845738195642942,0.0,0.0,7.3595504674001155,7.35970276329472,0.008955424809673604,0.008955427445765985,0.0,-3.052800686205364e-05,-4.864757953720165e-05,0.0
1626092578.241567,0.07264879202935903,-2.261998014318011e-05,5.27,3.68,4.838693257624982e-06,4.501110015553422e-05,1.402438998222351,0.0029296875,0.00244140625,0.00011806921936283838,0.001492491889530248,-0.0032993928717134128,0.0014672061979126624,-0.98392327399268,-0.9840694231849237,0.0,0.0,7.360644567654454,7.360796862596018,0.0104412823926697,0.010441285396637193,0.0,-2.1543286747856288e-05,-3.32670948604168e-05,0.0
1626092578.3015668,0.06957123308512142,-2.1487597497310058e-05,5.23,3.67,0.23774385452270508,-0.04963158071041107,3.1097562313079834,0.001953125,-0.1640625,0.10822279143122862,0.01795433362791901,0.02687971760490441,0.014389472373802196,-0.9728250282661601,-0.9814932787369531,0.5,0.0,7.361385514410774,7.361537809428449,0.01017019203101454,0.01017019719369474,0.0,4.72539141718463e-05,-1.65016236992533e-05,0.0
1626092578.361567,0.06699851249624927,-1.9979197259418794e-05,5.19,3.64,0.5096064805984497,-4.485364115680568e-05,3.9634146690368652,-0.19091796875,0.0078125,0.1347058863234219,0.01799846175424454,0.07076426070764139,0.021307895044989936,-0.975810660703912,-0.9763870638336387,0.5,0.0,7.361927273082464,7.3620795642221895,0.00976028034590385,0.009760305084307669,0.0,-3.8787180116792046e-05,1.1241748712924778e-05,0.0
1626092578.421567,0.0652183975482746,-1.814164538382212e-05,5.2,3.6,0.4844679832458496,-0.016931135207414627,4.02439022064209,1.0283203125,0.63818359375,0.19399645010826708,-0.009504267742211121,0.1290590125967034,0.005500245894489138,-0.9801613294498224,-0.9748628689442805,0.5,0.0,7.3627755225843,7.362927767073038,0.009359728442395195,0.00935982646701886,0.0,-0.0001988697370576153,-5.8708956022466407e-05,0.0
1626092578.481567,0.06235915938329081,-1.568286757251722e-05,5.09,3.48,0.49400094151496887,-0.000572455523069948,-0.7317073345184326,-0.4052734375,-0.11669921875,0.22652516461546462,0.010711896576552632,0.19485169489299198,0.005953889358465324,-0.9801853601672866,-0.9778673593557948,0.5,0.0,7.364109161300149,7.364261141776229,0.009401077405916319,0.00940136610518537,0.0,-0.00021908539671062723,-0.0001692397919672126,0.0
1626092578.507567,0.05968698456192527,-1.375792258806435e-05,5.07,3.42,0.3155975043773651,-0.0005727008101530373,1.9512195587158203,0.2958984375,0.22412109375,0.24209639383922302,0.0038012808640853217,0.22996958968993816,0.008183571277533898,-0.9807698823459747,-0.9781801467358695,0.5,0.0,7.365514255724875,7.365665705874133,0.010430067172038414,0.010430580445483461,0.0,-0.00018218592726372527,-0.00019024797239529547,0.0
1626092578.5415668,0.05736408914055162,-1.0726597884299966e-05,5.12,3.3,6.996268666625838e-07,-6.50815718472586e-06,-0.4878048896789551,0.01904296875,0.01708984375,0.17522178875196256,0.0002596486367469717,0.23149203571415886,0.00022387671513103978,-0.982861287423698,-0.9812958357388245,0.5,0.0,7.367320498928768,7.3674710248609605,0.010440584616817628,0.010441354478465496,0.0,-0.0001614893318515105,-0.00019305784644440283,0.0
1626092578.611567,0.055025740545905796,-7.283004485454577e-06,5.14,3.25,6.953866886760807e-07,-6.468713763752021e-06,1.0365853309631348,-0.009765625,0.02392578125,0.1020058274466805,0.00261459398709839,0.1956353821572315,0.002347816105861141,-0.9828707986090722,-0.98196819431858,0.5,0.0,7.368257650704345,7.368407707572835,0.010053278830356942,0.010054082825981244,0.0,-0.00011917402447783224,-0.00017465083834546376,0.0
1626092578.661567,0.053570813978730494,-5.629181453643783e-06,5.16,3.24,7.039190563773445e-07,-6.5480844568810426e-06,1.402438998222351,-0.00048828125,0.00341796875,0.05776261638020222,0.0019891948641629787,0.12398670129292877,0.0020916436598026693,-0.9829035814816228,-0.982231927568054,0.5,0.0,7.369627333042579,7.369776880520736,0.010072685084977457,0.01007337055659381,0.0,-8.81671910876444e-05,-0.00013285701962981872,0.0
1626092578.721567,0.05279900203607416,-5.657884724082839e-06,5.15,3.2,6.953866886760807e-07,-6.468713763752021e-06,1.3414634466171265,-0.00244140625,0.0107421875,0.03267566583050678,0.0020947016243231913,0.0828565176185953,0.0020975628989475846,-0.9829008166730292,-0.9821470895900067,0.5,0.0,7.370515046953114,7.37066438821094,0.01044828267149018,0.010448832912364705,0.0,-6.386243275792228e-05,-0.00010494956960315432,0.0
1626092578.7815669,0.052632714649677635,-6.125046076966109e-06,5.17,3.21,7.039190563773445e-07,-6.5480844568810426e-06,1.2804877758026123,-0.0048828125,0.00048828125,0.018462595391912733,0.00189304825695001,0.04700317431224672,0.0018656342653557518,-0.9829105868892674,-0.9822073995611721,0.5,0.0,7.371116356701177,7.371265693422864,0.009049983560798416,0.00905033912204829,0.0,-4.487660298511208e-05,-7.488774472812565e-05,0.0
1626092578.799567,0.05213803051964033,-6.333935014413071e-06,5.17,3.21,6.996268666625838e-07,-6.50815718472586e-06,1.3414634466171265,-0.00146484375,0.0078125,0.010433885548941351,0.001787211029256032,0.021276793860282542,0.0017643816032810518,-0.9829146600332741,-0.9820572788198233,0.5,0.0,7.372191950646975,7.372341274645913,0.01041304492261637,0.010413276081718895,0.0,-2.990198750347613e-05,-4.853100368594217e-05,0.0
1626092578.841567,0.05236424852176952,-6.4029518142019744e-06,5.17,3.2,7.039190563773445e-07,-6.5480844568810426e-06,1.2804877758026123,-0.00439453125,0.00146484375,0.005111943249851446,0.0017414437409806187,0.004640998615232177,0.0016816314114474933,-0.9829169968524146,-0.9819528644193942,0.5,0.0,7.373152445490994,7.373301803276408,0.010437985380692575,0.010438109821708556,0.0,-1.5618984289990566e-05,-2.523968534062824e-05,0.0
1626092578.9035668,0.052453702589514435,-5.425108669668499e-06,5.17,3.2,6.996268666625838e-07,-6.50815718472586e-06,1.3414634466171265,0.0,0.01318359375,0.0028752222381172514,0.0016795252261347848,-0.002340388646915647,0.0016915618999983183,-0.9829177102514132,-0.9818279757525619,0.5,0.0,7.3739076040495775,7.3740569828091465,0.01023069687901999,0.010230767412605072,0.0,-6.9384724172131e-06,-1.1076898087018661e-05,0.0
1626092578.961567,0.05205883883092693,-3.979309253149167e-06,5.16,3.18,0.04335293173789978,-0.0005547970067709684,1.402438998222351,0.00732421875,0.00830078125,0.04639531616374384,0.001681875611037534,-0.0013821040450813957,0.001665617544948032,-0.982920149983557,-0.9818058634054913,0.5,0.0,7.374426276472039,7.374575668232773,0.00977975850818113,0.009779801367919482,0.0,-2.685138084924571e-07,-2.8011525807673397e-06,0.0
1626092579.0215669,0.050679449335200764,-2.433403760129453e-06,5.15,3.14,0.24279946088790894,-0.016475185751914978,0.4878048896789551,0.029296875,-0.24169921875,0.08419613635758591,0.008084318281548767,0.04509773692894539,0.0061126019557857705,-0.9820026265194731,-0.9812920579414569,0.0,0.0,7.375403124033975,7.3755525107404685,0.009601558541768824,0.009601590313469181,0.0,1.2429304932561663e-05,8.574352179539601e-06,0.0
1626092579.0815668,0.04797929023178157,-8.808683687650275e-07,5.15,3.11,1.735752107379085e-06,-1.6146530469995923e-05,3.170731782913208,-0.01123046875,-0.17724609375,0.0813153880645407,0.0027224655009787735,0.06631257446389316,0.004352759678802193,-0.9814220674604909,-0.9805115800994673,0.0,0.0,7.375990337702467,7.376139701757628,0.009066906451780805,0.009066958733513203,0.0,3.1525004819075566e-05,2.3748173857148225e-05,0.0
1626092579.111567,0.04534690713362182,2.840490349757686e-07,5.09,3.1,0.0024637149181216955,0.382132351398468,-17.439023971557617,-0.0009765625,-0.025390625,0.04810146447556043,0.10657801978341896,0.06180898346459539,0.08616796789786262,-0.9646794962705998,-0.9695568396009587,0.0,1.0,7.376993774457011,7.377143076863716,0.008904266749335612,0.00890435026047119,0.0,1.772769869441756e-05,3.183316164961412e-05,0.0
1626092579.141567,0.04206808871211149,1.2050529364501807e-06,5.04,3.07,0.008455635979771614,0.9073043465614319,-54.024391174316406,-0.1181640625,-0.01806640625,0.02196970487597492,0.16527234868361484,0.04238905784831847,0.17148866403848695,-0.7726573610502243,-0.8810700169003987,0.0,1.0,7.378388845780498,7.3785380985092015,0.010430564551049537,0.010430650830049917,0.0,-0.00026682014421139133,-6.653567004314193e-05,0.0
1626092579.201567,0.037309989965616436,1.8572229011471558e-06,4.98,3.05,0.006679662503302097,0.9298738837242126,-50.4878044128418,-0.04052734375,-0.01806640625,0.010266297290817138,0.15710369941895175,0.0245750996893322,0.1979729748147163,-0.556037989792464,-0.7171552454494343,0.0,1.0,7.379532721529067,7.379681968126455,0.010068853001164889,0.010068920273337592,0.0,-0.000543251120672789,-0.00028247776265896555,0.0
1626092579.2615669,0.03134354043353902,2.457848445835227e-06,4.98,3.07,0.01134552899748087,0.9956158995628357,-58.353660583496094,-0.03076171875,0.03125,0.0035269410378603486,0.16363153317560525,0.01100945161423201,0.2277422004710745,-0.3309147291731913,-0.4863919799737755,0.0,1.0,7.380776614486726,7.380925868157788,0.010029370428397282,0.01002941723688496,0.0,-0.000678418810361509,-0.0004996311861055763,0.0
1626092579.3215668,0.02453760783311065,3.1152938584062713e-06,4.98,3.04,0.000758832844439894,-0.0664663314819336,-24.207317352294922,0.0625,0.0673828125,-0.0003413381403402406,0.1726011680676317,0.0018910522718261751,0.24634886587241944,-0.12260958943000173,-0.24613181748204582,0.0,1.0,7.382175094915673,7.3823243525481645,0.009603029833789837,0.009603060649610015,0.0,-0.0007425856079291923,-0.0006681208708468213,0.0
1626092579.381567,0.017242210652437442,3.876816302354271e-06,4.97,3.02,1.7435307881896733e-06,1.621889168745838e-05,1.5243902206420898,-0.00048828125,0.00146484375,-0.000405123945012884,0.04340156211984993,-0.002818305943720007,0.09517744508459544,-0.1053288052937967,-0.13325299193686188,0.0,1.0,7.383397545615685,7.383546804774164,0.009369863133336744,0.009369882749739765,0.0,-0.0005886920417438848,-0.000687071462551813,0.0
1626092579.4035668,0.01156425903087126,4.422624025994396e-06,4.97,3.0,1.7435307881896733e-06,1.621889168745838e-05,1.2804877758026123,-0.01318359375,0.00927734375,-0.00021972890930013842,0.04303549880593397,-0.005007020951580615,0.04293510577223883,-0.1057133465555769,-0.11401795268440189,0.0,1.0,7.384311366501871,7.384460627406484,0.01037092417616651,0.010370938265510006,0.0,-0.00046208897150107006,-0.0006289061651023817,0.0
1626092579.441567,0.005783820046566463,5.0639132495706825e-06,4.98,3.0,0.0063174813985824585,0.8898288607597351,-22.926830291748047,-0.0263671875,-0.06591796875,-0.000726464721657242,0.19240085842984017,-0.005601124059224336,0.14751395567293538,-0.05865415717620064,-0.08299867423874693,0.0,1.0,7.38510498999711,7.385254252473616,0.010243442850114734,0.010243452025494234,0.0,-0.0003681906078263149,-0.0005254317099569963,0.0
1626092579.507567,-0.00048413950812155543,5.775442041719045e-06,4.95,2.95,0.0037701332475990057,0.18091616034507751,-54.39024353027344,-0.04296875,0.01220703125,-0.00258892854679042,0.16229978320284538,-0.006327033296248314,0.18735486784338093,0.1963190743115611,0.05623323055741543,0.0,0.0,7.386501048051852,7.386650312917604,0.010065054372317916,0.010065060129653138,0.0,-0.0004056090594547962,-0.0004504453156340169,0.0
1626092579.5615668,-0.006712735716235834,6.499456446958776e-06,4.94,2.92,4.4063617110623454e-07,-4.098941190022742e-06,1.097561001777649,0.0029296875,0.0087890625,-0.0015775001682900819,0.11673259035101721,-0.006344414010020969,0.18145239527767879,0.2538451331584151,0.17703642905689446,0.0,0.0,7.387337405216612,7.38748667129926,0.009730034887125646,0.009730039188046264,0.0,-0.0002890443242290681,-0.00040825464560699537,0.0
1626092579.621567,-0.012829347486725014,7.2057521854238775e-06,4.92,2.92,4.4063617110623454e-07,-4.098941190022742e-06,1.3414634466171265,-0.0029296875,0.01025390625,-0.0008786591030090007,0.03300181117427944,-0.005824463303789993,0.042260132535128794,0.2510025379854034,0.23315374650527604,0.0,1.0,7.388566093834811,7.38871536166514,0.010510219892745152,0.010510223246953497,0.0,-0.00021180901748079378,-0.0003204906875241273,0.0
1626092579.681567,-0.018667374392920252,7.867939096132784e-06,4.91,2.91,0.0033103665336966515,0.8081167936325073,-34.024391174316406,-0.0419921875,-0.00244140625,-0.0005235681653753524,0.21403012489865442,-0.004538889287338886,0.15122373104356043,0.28361277414734704,0.2706301838826988,0.0,1.0,7.389584411392139,7.389733680631745,0.010213762735347067,0.010213765253827329,0.0,-0.00014818057381573826,-0.00021876299815350785,0.0
1626092579.695567,-0.023014948030965283,8.347154163802082e-06,4.89,2.89,0.0008128768531605601,-0.06596359610557556,-11.280488014221191,0.05078125,0.083984375,-0.0017221839228084566,0.18674695923327073,-0.004248731088227721,0.19688824202582755,0.4258383089580665,0.3521978883726141,0.0,0.0,7.390606942290978,7.390756212233754,0.010296407471505373,0.010296409643204552,0.0,-0.00018779231841378137,-0.0001837358438465766,0.0
1626092579.741567,-0.02721242753682735,8.80176664098551e-06,4.9,2.86,4.978920514986385e-06,4.6315537474583834e-05,1.402438998222351,-0.01220703125,0.0126953125,-0.0012997927596669746,0.10521826072820048,-0.004167085166811744,0.16439289596727175,0.4405208744753656,0.43129733975118617,0.0,0.0,7.391782430926182,7.391931701417949,0.010257542334702838,0.010257544163803643,0.0,-0.0001295774514160286,-0.00016058192158973985,0.0
1626092579.8015668,-0.031301581663814096,9.224512864215169e-06,4.91,2.85,0.012999536469578743,-0.0997902974486351,1.402438998222351,-0.00830078125,0.0048828125,0.044108915677487454,0.01166038574620896,0.007091482211556109,0.02895674530777956,0.43492996715249155,0.44357027172500135,0.5,0.0,7.392887639425398,7.393036910334951,0.010287378881957616,0.010287380524433624,0.0,-8.389841349577777e-05,-0.00011078027398126558,0.0
1626092579.861567,-0.03514753008099185,9.59715768542436e-06,4.88,2.86,0.4555986225605011,0.033052362501621246,-2.4390244483947754,1.04345703125,0.1259765625,0.11465612170508319,0.018688233310067127,0.046383364301821,-0.0008042970741407409,0.42230204805570043,0.43716607611058733,0.5,0.0,7.393411074003079,7.39356034620483,0.009800041646164093,0.009800048984142086,0.0,-0.00017633744928028714,-0.00010157649408617504,0.0
1626092579.921567,-0.03866014864328367,9.913619996852237e-06,4.8,2.93,0.5224739909172058,-0.03251828998327255,-0.4268292784690857,0.0,0.33740234375,0.17080585318552066,0.021181331213889897,0.10361438704537104,0.018786426466532426,0.43267514071389224,0.4366319079534478,0.5,0.0,7.3944678542628735,7.39461719275613,0.010500848078720225,0.01050091108640073,0.0,8.488813543643301e-05,-8.195476411279528e-05,0.0
1626092579.981567,-0.04178856272782909,1.0168702390999589e-05,4.72,2.97,0.4464653730392456,0.03213677182793617,0.4878048896789551,-0.01318359375,-0.44140625,0.21262476014689607,0.013441070501989038,0.162559032990873,0.01977263045477335,0.4356911706437295,0.43916714650101885,0.0,0.0,7.395236091355978,7.395385631997242,0.009145207930102513,0.009145391492062742,0.0,0.00024362853924090434,0.00010109867995954008,0.0
1626092580.007567,-0.044115797813589305,1.0355026305751078e-05,4.63,3.01,0.06452426314353943,0.016845086589455605,2.317073106765747,-0.0166015625,0.32177734375,0.2084903993158385,0.00985841300967441,0.20658043936157316,0.013794931837213547,0.43639094566770786,0.4394768190123891,0.0,0.0,7.396662942007191,7.396813213895775,0.008917829199035771,0.008918243109638993,0.0,0.0001753970798097688,0.00018661464070209314,0.0
1626092580.0415668,-0.046176609507646696,1.0501234548068301e-05,4.6,3.02,3.485281752091396e-07,-3.2421226023870986e-06,1.7073171138763428,0.001953125,-0.0029296875,0.11856917354334472,0.005920533640063817,0.1957662874636046,0.007599442287952944,0.4377543761599109,0.439615140738841,0.0,0.0,7.398048682487635,7.398199917758647,0.01027540789594516,0.010275983102771365,0.0,0.00015421519843813127,0.00020232908342487915,0.0
1626092580.111567,-0.04803789118629171,1.060463117846167e-05,4.58,3.03,3.5066639725300774e-07,-3.2620127967675216e-06,1.402438998222351,0.0,0.013671875,0.06748198865416753,0.00301166563500265,0.1356850930825001,0.0036005595055912843,0.4376715761159311,0.4391788946045988,0.0,0.0,7.399460304618158,7.399612501875883,0.010087963557821397,0.010088545722356216,0.0,0.00014479636238137587,0.0001962125653030353,0.0
1626092580.161567,-0.049620579484471856,1.0664759657353134e-05,4.58,3.04,0.00737729761749506,-0.2988300919532776,11.646341323852539,0.00244140625,0.07177734375,0.03789238839882501,-0.12536408362000856,0.08801919726373911,-0.06957131935828784,0.42534715875718765,0.43034478866700965,0.0,-1.0,7.400428323543999,7.400580853059541,0.010313274519671544,0.010313735457386296,0.0,0.00012529315966502714,0.00018198494839060365,0.0
1626092580.221567,-0.05092307470006435,1.0682581817788497e-05,4.58,3.03,0.01317146047949791,-0.9786304831504822,52.256099700927734,-0.00634765625,0.00146484375,0.02320715345986492,-0.220544269596635,0.057595453711073934,-0.19181604558100915,0.3151774054716771,0.38402230553105493,0.0,-1.0,7.401374010037969,7.401526679753513,0.010484474446676707,0.010484826844687711,0.0,0.00011870660801539641,0.00016860774704955596,0.0
1626092580.2815669,-0.05193834050525093,1.0657960298199097e-05,4.58,3.02,0.010590373538434505,-0.929876983165741,51.463417053222656,0.07080078125,-0.16357421875,0.015289828546202547,-0.18667784615604707,0.028438893852250628,-0.21552034491411187,0.09116382681587765,0.20603102625422515,0.0,-1.0,7.402951422158783,7.403104160367406,0.010209922126260177,0.010210131506245113,0.0,6.912453057108647e-05,0.00013012990134843636,0.0
1626092580.299567,-0.052640181600130204,1.0614289833026173e-05,4.58,3.04,0.011339998804032803,-0.9956673383712769,56.76829528808594,0.02783203125,0.01220703125,0.011387775163352291,-0.18353759577771445,0.01637190875277272,-0.23433539290301014,-0.12870093232715174,0.011283615263372753,0.0,-1.0,7.404156619744793,7.404309389303962,0.010299369441954682,0.010299510610437901,0.0,-9.164584364128473e-06,8.105834249121705e-05,0.0
1626092580.341567,-0.053187744679618905,1.0574150581779871e-05,4.59,3.04,0.0006892193923704326,0.0663522481918335,39.024391174316406,-0.015625,-0.1044921875,0.008299014156202315,-0.18820746012880593,0.006278525268731348,-0.25905322818705834,-0.4064934457113902,-0.28181894666070934,0.0,-1.0,7.405939840112126,7.406092624986615,0.010429044093886411,0.010429119263754845,0.0,-0.00011631019797225342,-2.9274465300069333e-05,0.0
1626092580.4035668,-0.053533224906695896,1.0409597996412106e-05,4.61,3.06,8.918877938413061e-07,8.29663076729048e-06,1.5243902206420898,-0.01220703125,0.00244140625,0.005110150665821128,-0.14976610119747935,0.0016360027256109516,-0.1678024380198053,-0.44080336599701725,-0.4082350927985931,0.0,-1.0,7.407221952249632,7.407374740781927,0.010097325457492076,0.01009736773707142,0.0,-8.443649746616672e-05,-7.300317577142968e-05,0.0
1626092580.461567,-0.05371104223643448,9.425552670673173e-06,4.62,3.08,0.005227019544690847,-0.7966468930244446,38.475608825683594,0.02880859375,0.0908203125,0.003601131011552254,-0.32296591467412095,-0.001619248294723676,-0.2544913236889165,-0.4800998170414732,-0.47170857835909674,0.0,-1.0,7.408383739869981,7.408536529531215,0.01015811133139951,0.01015813424257694,0.0,-7.69527441229258e-05,-8.292816133487897e-05,0.0
1626092580.5215669,-0.053712065160707506,7.655704361309155e-06,4.6,3.04,0.013977685011923313,-1.039146900177002,62.0121955871582,-0.060546875,0.02294921875,0.0037373346038075887,-0.26731338018151685,-0.0024098245436083065,-0.28283133842881575,-0.6602040293531969,-0.5950705561832257,0.0,-1.0,7.409938754145386,7.4100915446110855,0.009545859271620964,0.009545870728474262,0.0,-0.0001273730214065635,-9.77757660890769e-05,0.0
1626092580.5815668,-0.0535549020351839,4.068665273580864e-06,4.63,3.03,0.0018116043647751212,-0.016852134838700294,20.731708526611328,-0.05908203125,-0.03515625,0.0049915636178871365,-0.22985235849617527,-0.002211693277023645,-0.2728986489861358,-0.8958307626477977,-0.8074050186600564,0.0,0.0,7.411910581132342,7.4120633716677,0.010236244694932171,0.010236250345533545,0.0,-0.00031334859030547336,-0.00020998605331999317,0.0
1626092580.611567,-0.053321548815263534,1.307047668783021e-06,4.73,3.01,4.072514911968028e-06,3.78838594770059e-05,1.402438998222351,0.00830078125,-0.0029296875,0.003406381566668886,-0.13269862743190922,-0.00196748362210109,-0.22097751052285503,-0.9293041702858011,-0.9150900661671361,0.0,0.0,7.413291488209912,7.413444278846061,0.01030882988267604,0.010308833107843052,0.0,-0.00023922932647845458,-0.00025035944658729836,0.0
1626092580.641567,-0.053083481419206976,-3.080331484956815e-06,4.78,3.01,4.072514911968028e-06,3.78838594770059e-05,1.402438998222351,-0.0126953125,0.01123046875,0.0019396668257200057,-0.017848395340819948,-0.0023016234274940315,-0.05102995691352854,-0.9250016363369528,-0.9343372081694734,0.0,-1.0,7.414317289504625,7.414470080467281,0.010232054944531685,0.010232056891099173,0.0,-0.00019012316507700962,-0.00024280563984391623,0.0
1626092580.701567,-0.05268810490106151,-8.512100682351037e-06,4.64,3.04,0.007203693501651287,-0.808059811592102,50.3658561706543,-0.02880859375,0.11083984375,0.0020503629656892274,-0.17511890337548427,-0.0025805342397967313,-0.14605991709828464,-0.972845580683408,-0.9593645634026059,0.0,0.0,7.415371959010621,7.415524750053954,0.010188498780879096,0.0101885003859355,0.0,-0.00015719762966221381,-0.0002044856550910899,0.0
1626092580.761025,-0.05213380430295528,-1.3632648975132698e-05,4.56,3.0,0.002128625987097621,0.016358783468604088,1.1585365533828735,-0.01904296875,0.01904296875,0.002468930580867527,-0.15059094135808718,-0.0018006685112838044,-0.1603537379766236,-1.0644759287577334,-1.0132008646995625,0.0,0.0,7.416108843835514,7.416261635150339,0.00963362872961977,0.0096336303581823,0.0,-0.00015126345247662806,-0.0001902033713279399,0.0
1626092580.821025,-0.05144473135136029,-1.974926506036934e-05,4.53,2.98,1.4161092849462875e-06,-1.317310943704797e-05,1.1585365533828735,-0.00634765625,0.01806640625,0.0013422540269989313,-0.023449144327795574,-0.0019021382521396794,-0.06717819227409014,-1.0694564390535504,-1.0631343503631085,0.0,0.0,7.417365919173049,7.417518710079785,0.010485283831098435,0.010485285799388915,0.0,-0.00010898349914533731,-0.00015545133858829412,0.0
1626092580.881025,-0.05066281091317947,-2.939400919409323e-05,4.54,2.98,0.004258330911397934,-0.03270752727985382,1.2804877758026123,-0.0029296875,0.00244140625,0.0007765529343609276,-0.005411426847709052,-0.0015788516780335731,-0.014108683903546734,-1.0672398828966005,-1.0685056127347552,0.0,-1.0,7.417897257834922,7.418050049152631,0.008894022100227767,0.008894024103647126,0.0,-8.003594195678356e-05,-0.00011782828206666078,0.0
1626092580.903025,-0.04999221615673729,-3.67085431719079e-05,4.5,2.97,0.00826602429151535,-0.7258577346801758,40.79268264770508,0.04150390625,-0.0146484375,0.001461584823390218,-0.10205884690403899,-0.0018636041157932366,-0.0889313843678893,-1.1248554701980114,-1.0835290013116265,0.0,0.0,7.418799097685906,7.418951888397805,0.010191231444432645,0.010191233678465564,0.0,-6.965368571813857e-05,-9.116378451908627e-05,0.0
1626092580.941025,-0.04935426182021145,-4.9072996329269596e-05,4.5,2.97,0.0021991191897541285,0.01690836437046528,1.5243902206420898,0.0009765625,-0.00439453125,0.001469235761123717,-0.08043535595169145,-0.0010540076529752273,-0.10194985355546649,-1.2146162399909297,-1.1497650030781859,0.0,0.0,7.419908933360487,7.420061723845958,0.010251196978997776,0.010251199232859545,0.0,-6.110728595540527e-05,-7.594916577987247e-05,0.0
1626092581.007025,-0.0486029501576793,-6.684543072374582e-05,4.51,2.96,0.03274424746632576,0.23304679989814758,1.2195122241973877,-0.0087890625,0.01513671875,0.033656008596420116,-0.008936822430156628,0.0007012383252312738,-0.03418228108076268,-1.2141527036078186,-1.1780189521907096,0.5,0.0,7.420494058741408,7.420646849238528,0.009618461015622836,0.009618463173053995,0.0,-3.7363626933239055e-05,-5.9805987089256924e-05,0.0
1626092581.061025,-0.04780490901755809,-8.560637631224678e-05,4.53,2.99,0.4109607934951782,-0.06632260978221893,1.3414634466171265,-0.177734375,0.0517578125,0.11104839272374889,0.020122050979440757,0.05435631294073197,0.012613939991905972,-1.1979716719719118,-1.189227128603509,0.5,0.0,7.421471943205766,7.421624729257186,0.009630389393311237,0.009630400753625873,0.0,9.448764748998085e-05,-2.4271525439659027e-06,0.0
1626092581.121025,-0.046904943534619,-0.00010142969226810976,4.63,3.01,0.5288836359977722,-0.03292692080140114,1.2195122241973877,-0.0634765625,0.0498046875,0.15583107517547692,-0.00042032968230665323,0.11029671633657444,0.0015516236789622757,-1.206245531061839,-1.1929504357276852,0.5,0.0,7.422539822630455,7.422692515268726,0.01045899354666908,0.010459064452742363,0.0,-0.0001545653863941258,-2.1138284419149548e-05,0.0
1626092581.181025,-0.04589301180052905,-0.00011252908399212964,4.64,2.98,0.49605855345726013,-0.016386443749070168,-1.2195122241973877,0.111328125,0.091796875,0.21131758146677998,-0.007375971954510125,0.1688641793907583,-0.0039239418936928535,-1.2086930133995697,-1.2001574096029377,0.5,0.0,7.423233009610647,7.423385472090048,0.008886940963940453,0.008887128685744407,0.0,-0.0003099593503753042,-0.00017403755849053132,0.0
1626092581.195025,-0.04509427088303352,-0.00012090635321420465,4.63,2.92,0.4362477660179138,-0.049385666847229004,2.6219513416290283,0.30712890625,-0.0478515625,0.2402191620167568,-0.00788419536798764,0.21968541110532935,-0.009634714004252476,-1.21074239632828,-1.2079328435258179,0.5,0.0,7.424873217594441,7.425024684556939,0.010424962566144787,0.010425395576549723,0.0,-0.000247567741360952,-0.00024059420591186797,0.0
1626092581.241025,-0.04422813872546865,-0.00012598586278784305,4.58,2.75,0.053075309842824936,0.015909573063254356,0.6707317233085632,-0.03076171875,0.1865234375,0.22124612291166962,0.0029761430780503055,0.24069193219164145,0.004188046031537621,-1.211707195977827,-1.209491315217652,0.5,0.0,7.426257085912994,7.426407180806712,0.01018882417386783,0.010189481496827881,0.0,-0.00021473865226036143,-0.00024489929764170157,0.0
1626092581.301025,-0.043232249534889224,-0.0001284318008763211,4.59,2.67,4.6228042265283875e-06,-4.3002833990613e-05,-0.18292683362960815,-0.0048828125,0.01123046875,0.13859503615461702,0.003783665605739103,0.2222051244494545,0.002620963191004121,-1.211219131358149,-1.2103474802933616,0.5,0.0,7.427285677302669,7.427434635239469,0.009597282220054243,0.009598054506042312,0.0,-0.0001684108898701891,-0.0002268259895669103,0.0
1626092581.361025,-0.04213502173178173,-0.00012845078807949468,4.57,2.59,4.6228042265283875e-06,-4.3002833990613e-05,1.3414634466171265,-0.00048828125,0.01318359375,0.0526045890393047,0.0024297292551813234,0.12995942000566546,0.0028451516056667986,-1.2112877609701247,-1.2104383039930897,0.5,0.0,7.429420087708606,7.429567081163735,0.01011828885200326,0.010118998525757265,0.0,-9.751843801603497e-05,-0.00015998717122078264,0.0
1626092581.421025,-0.04096029605779097,-0.00012642952897310203,4.55,2.59,0.1878267526626587,0.03324374929070473,-0.3658536672592163,0.08642578125,-0.11767578125,0.1153963411933413,0.0020382232332486374,0.10126782983960145,0.0022085112728114408,-1.2100242225869233,-1.210427628593991,0.5,0.0,7.430333724585107,7.430480340996162,0.009954262695811874,0.009954791137888724,0.0,-6.98541652797118e-05,-0.00011816325920483368,0.0
1626092581.481025,-0.039732166353608926,-0.0001227135561926228,4.55,2.55,0.21171832084655762,-3.92654437746387e-05,-0.12195122241973877,-0.01318359375,-0.05810546875,0.135841020582582,0.001307408306868745,0.11653387555803053,0.0023609290879792423,-1.2092383726891247,-1.2092676165791985,0.0,0.0,7.431204798843283,7.431351083294026,0.009602122722801651,0.009602519868275346,0.0,-2.7573470826328966e-05,-7.5662629070176e-05,0.0
1626092581.507025,-0.0379150525184683,-0.000119803894658611,4.55,2.45,4.2210349420201965e-06,-3.92654437746387e-05,1.2195122241973877,-0.01513671875,-0.013671875,0.10981109834411924,-0.005048370555615495,0.12552781815553626,-0.0031434869517302406,-1.2102927536797614,-1.2098590781681342,0.0,0.0,7.432272399534303,7.432418183340902,0.010016336318075065,0.010016697011791132,0.0,-2.156767685826242e-05,-4.133936271026937e-05,0.0
1626092581.541025,-0.03527960233888647,-0.0001157505507945251,4.54,2.46,1.155541326625098e-06,-1.0749220564321149e-05,1.2195122241973877,0.00439453125,0.02490234375,0.06196790575313859,0.00020969574612107842,0.09594680755804393,-0.001070940258675136,-1.2098114381277116,-1.2104677993322552,0.0,1.0,7.433519955521397,7.433665196561337,0.010360767899593925,0.01036109992289376,0.0,-1.3004143582279083e-05,-1.6469747075747518e-05,0.0
1626092581.601025,-0.03102803277931718,-0.00011035263604798607,4.56,2.44,0.005672318860888481,0.49781209230422974,-31.158536911010742,-0.04443359375,-0.0439453125,0.035726348205610915,0.13433670178314688,0.06783331398233625,0.08941137063254499,-1.1872741781217022,-1.1978210258442246,0.0,1.0,7.434284407841803,7.4344294600517555,0.010280859174341772,0.010281136528183528,0.0,-2.2413086295837345e-05,-7.573387539248075e-06,0.0
1626092581.661025,-0.02540079463001084,-0.00010462833653688621,4.54,2.47,0.010509418323636055,0.9282045960426331,-53.963417053222656,0.01416015625,-0.064453125,0.01579620948744908,0.17443170468626842,0.03929918319931841,0.17667719687645514,-0.9804231279812103,-1.1252918362759987,0.0,1.0,7.435296893829645,7.4354418809066605,0.010118917886110464,0.01011911514112831,0.0,-0.0002603899679386261,-6.041087742763885e-05,0.0
1626092581.721025,-0.018568252399773836,-0.00010069686966836918,4.53,2.46,0.012726794928312302,0.9451723694801331,-52.317073822021484,-0.18359375,0.15869140625,0.008584205544330108,0.165064414438368,0.02245187064561021,0.19217395685190616,-0.8151990922950344,-1.0074238726209845,0.0,1.0,7.436135005174164,7.436279990108369,0.009554594889155036,0.009554734726229116,0.0,-0.000439720423850429,-0.00018250844124903144,0.0
1626092581.781025,-0.012623977816923551,-9.959218425979096e-05,4.55,2.48,0.008819186128675938,0.9451404213905334,-55.97561264038086,-0.02197265625,-0.0126953125,0.0023488163681883124,0.16668342653105117,0.0059536886063567135,0.213470494731821,-0.5930336348690458,-0.7904248390879627,0.0,1.0,7.4376036248961155,7.437748612999798,0.01023430449539369,0.010234392766715152,0.0,-0.0006059167353251832,-0.00038776553119435135,0.0
1626092581.799025,-0.008305940856169982,-9.872486525630965e-05,4.6,2.55,0.00825553759932518,-0.03234967589378357,-18.170732498168945,0.0595703125,0.06201171875,-0.0012576173839376715,0.17218095901734135,-0.0050988362770459554,0.24369106802337923,-0.37102030458909985,-0.49939590307690324,0.0,1.0,7.439253752762473,7.439398746993681,0.009993797707084563,0.0099938442243864,0.0,-0.0006899940355157985,-0.0005987343946347654,0.0
1626092581.8410249,-0.003928224920071461,-9.926282148188157e-05,4.57,2.46,1.1320506700940314e-06,1.0530703548283782e-05,1.2804877758026123,-0.0048828125,0.0107421875,-0.0010049844098951942,0.023982570952928214,-0.008941415139871097,0.12005248160398756,-0.3432142723414392,-0.3848090267366761,0.0,1.0,7.440417423678443,7.440562420862714,0.010359535285607357,0.010359564912083504,0.0,-0.0005224951224062213,-0.0006147843614310839,0.0
1626092581.903025,0.0009621484190679488,-9.82405726695507e-05,4.56,2.41,0.009069474413990974,0.7907037138938904,-16.09756088256836,-0.00927734375,-0.0693359375,-0.0007167621574957759,0.19897980905615628,-0.010141102761261477,0.14228990477651687,-0.3167637094535857,-0.3404241531889077,0.0,1.0,7.441252840595238,7.4413978409460135,0.010280258605411633,0.010280275442121421,0.0,-0.0003835075390046448,-0.0005522355946897966,0.0
1626092581.961025,0.00658987992826818,-9.308117968482123e-05,4.57,2.37,0.01090333517640829,0.9568549990653992,-56.89024353027344,-0.14013671875,0.0361328125,-0.001953790351304778,0.16989926721164422,-0.009919247416166376,0.18522161556670236,-0.1345230870643014,-0.2642824942917954,0.0,1.0,7.442337610838725,7.442482614705142,0.009980311516832189,0.009980321205327356,0.0,-0.0003900452278632497,-0.00046893547029692317,0.0
1626092582.021025,0.012959659179875412,-8.451206395677237e-05,4.57,2.38,0.01076586451381445,0.9505219459533691,-55.24390411376953,-0.1005859375,0.07568359375,-0.003764773591727672,0.1635501679329108,-0.010025461359985098,0.1988773464924356,0.09701605446628886,-0.0993686565555961,0.0,1.0,7.443506684165316,7.443651691699912,0.009694662690110566,0.009694668686268774,0.0,-0.0005118943798950691,-0.00046179636277811055,0.0
1626092582.081025,0.019844854878755733,-7.227488332835907e-05,4.59,2.36,0.0046750642359256744,-0.06553146988153458,6.219512462615967,-0.02001953125,-0.0009765625,-0.004602140204991877,0.1657260782273233,-0.01060734627775185,0.22687200827198986,0.3067658811837178,0.1710703601199528,0.0,0.0,7.445131944529731,7.445276957114182,0.009636458608346428,0.009636462785297374,0.0,-0.0005450423384942406,-0.0005312423884508347,0.0
1626092582.0910249,0.024752729381653422,-6.32861613574751e-05,4.59,2.33,4.5809251787432e-06,4.2613257392076775e-05,1.7073171138763428,-0.02978515625,-0.01123046875,-0.00260310611031317,0.03305268655038784,-0.009873629284720242,0.12246998355611263,0.33157445202021657,0.30056752007211557,0.0,0.0,7.446567316765776,7.446712333364965,0.009998415510828109,0.00999841926558368,0.0,-0.00040872924284343274,-0.0004968805663303043,0.0
1626092582.141025,0.030331223744771242,-5.1056756134906174e-05,4.6,2.3,0.01688363030552864,-0.0996786430478096,1.2804877758026123,-0.0078125,0.009765625,0.02208232958491308,0.00973052783103454,-0.004663145390055939,0.03579150105882697,0.32954401937217703,0.32150408918088125,0.5,0.0,7.447383090525224,7.447528109463835,0.01035515010798642,0.010355153812850211,0.0,-0.0003079388033553469,-0.00042527631775475245,0.0
1626092582.201025,0.036216461059027025,-3.597673903965034e-05,4.59,2.32,0.3760325312614441,0.03264833614230156,-0.6707317233085632,-0.0458984375,0.1669921875,0.1026136531276316,-0.0029102444700417544,0.04918646868620032,-0.003394472954552455,0.31582341002987047,0.32245994546358536,0.5,0.0,7.448358142034783,7.448503159419193,0.01035657053003073,0.010356586477098903,0.0,-0.0002929644825782839,-0.0003296357814333375,0.0
1626092582.261025,0.042072027391039546,-1.984637144892115e-05,4.55,2.33,0.536267101764679,0.0659557357430458,-3.9634146690368652,0.07177734375,0.30615234375,0.15152228142111873,0.02319668910572142,0.08523147342553568,0.014464321977004969,0.32220693232850983,0.32251810274502707,0.5,0.0,7.448980681721966,7.449125735967732,0.010238561440193318,0.010238610570994698,0.0,-0.0001475842957082315,-0.00029074943930251356,0.0
1626092582.321025,0.047680945995794935,-4.028598173543385e-06,4.47,2.36,0.49400606751441956,-0.000525035837199539,3.353658676147461,-0.24072265625,0.2294921875,0.20441986602734455,0.01528863244459363,0.14235286703758487,0.02021257559314362,0.329178329119682,0.32740597604194227,0.5,0.0,7.449798048266888,7.449943286639572,0.00966687214500191,0.009667003602603324,0.0,0.0001370070927891771,-0.00011090238917371078,0.0
1626092582.381025,0.05284737233442725,9.91135676512003e-06,4.37,2.31,0.500016987323761,-0.016929246485233307,-0.9756097793579102,0.32666015625,0.02490234375,0.23696825486999706,0.005910951320933938,0.2114652534213914,0.00853768254642476,0.32920920288232186,0.33099337833632464,0.5,0.0,7.451688824201571,7.451835107277992,0.010493203013917915,0.010493615815553744,0.0,0.00013187396212432462,9.693052457804277e-05,0.0
1626092582.403025,0.056258912122181565,2.0442545262823674e-05,4.27,2.33,0.1746634691953659,-0.016885491088032722,0.9756097793579102,0.13623046875,0.30712890625,0.2254888586102205,0.010629451768225471,0.23681621766169658,0.011962437997228532,0.3305154385690865,0.3320611275742188,0.5,0.0,7.453033693416895,7.453181286015358,0.009784338703294081,0.009784962833157586,0.0,0.0001271739048828953,0.0001449465525435265,0.0
1626092582.441025,0.059913986005838894,2.8557870354219324e-05,4.2,2.32,3.372444325577817e-06,3.1371575460070744e-05,0.9146341681480408,-0.0009765625,0.01904296875,0.14230637955743572,0.0038774870201608302,0.21088394976400185,0.004517337496536203,0.3299756552072454,0.33163837105521804,0.5,0.0,7.454715856473729,7.4548653666363744,0.010385477283213809,0.010386283028183707,0.0,0.00014602309834676962,0.0001749053723880344,0.0
1626092582.507025,0.06325970397064148,3.450827610888674e-05,4.17,2.31,0.007649457547813654,0.33021774888038635,1.2804877758026123,-0.00390625,0.0126953125,0.08418761777569388,0.13205447505134402,0.151756797730669,0.09023017003046659,0.34595422997295566,0.34175361590811765,0.0,1.0,7.455635642113066,7.455785943432259,0.008903216446803627,0.008903949366092312,0.0,0.0001374423965211797,0.00017772477878759245,0.0
1626092582.561025,0.06630457936736797,3.8975732916650505e-05,4.17,2.21,0.0030030235648155212,0.263755202293396,-28.658536911010742,0.0234375,0.05078125,0.039530919174046567,0.19346855429011228,0.09529885179853138,0.19955538527767527,0.50639925666416,0.4449306563646746,0.0,0.0,7.457387996239882,7.457539142522355,0.010332005975415861,0.01033260572355938,0.0,-0.0001834623718406728,6.414174252563835e-05,0.0
1626092582.621025,0.06862676620765651,4.2509555134031946e-05,4.16,2.17,2.104872464769869e-06,-1.958020766323898e-05,1.097561001777649,0.0009765625,0.00732421875,0.02239265983332944,0.12997625623909176,0.05456986822486781,0.1545025160500693,0.5282875541779827,0.5200634741864391,0.0,0.0,7.458596372305042,7.458747626187429,0.010203287646494382,0.010203703112018382,0.0,-9.185346118353569e-05,-3.852855165186578e-05,0.0
1626092582.681025,0.06981671840214419,4.565702341496322e-05,4.16,2.16,0.005866531282663345,-0.34926551580429077,12.743903160095215,-0.02197265625,0.01513671875,0.012769479687507333,-0.061337320142528594,0.027525799121863762,-0.0014364690614808787,0.5157344487172323,0.5303142690598501,0.0,-1.0,7.459531261766105,7.459682541165119,0.00994604975944089,0.009946316504725421,0.0,-3.153062649556396e-05,-4.187451970779194e-05,0.0
1626092582.695025,0.07037888849133062,4.77633655898062e-05,4.16,2.22,0.006641523912549019,-0.22990868985652924,18.841463088989258,-0.0693359375,-0.05712890625,0.008577079529249791,-0.14799197899767547,0.013532288633610428,-0.12017552894488183,0.39584900918474936,0.4907130328047146,0.0,0.0,7.460242901677262,7.4603941848987905,0.01002245902145523,0.010022639662969289,0.0,-2.8368228997550282e-05,-2.6843653466077555e-05,0.0
1626092582.741025,0.07004622085239717,4.9584529747888797e-05,4.16,2.27,4.695311872637831e-06,4.367731889942661e-05,1.4634146690368652,-0.01513671875,0.0068359375,0.005418146927791052,-0.032972254415935875,0.0021513087801346385,-0.08161412626263559,0.34741418950497766,0.39480721777824956,0.0,0.0,7.461411625832112,7.4615629073975835,0.009791283259794325,0.00979137743139151,0.0,-1.071586362305892e-05,-1.853397880246161e-05,0.0
1626092582.801025,0.06811537761272994,5.11286774317814e-05,4.15,2.27,4.724117388832383e-06,4.3945277866441756e-05,1.402438998222351,-0.005859375,0.01220703125,0.003147105606084492,-0.009040310929682714,-0.002179206056598045,-0.02086797740916968,0.34787118943157264,0.36819948411927855,0.0,0.0,7.462107894060614,7.462259174978618,0.008935398730962257,0.008935449607236263,0.0,3.194608043702395e-06,-4.24696392760964e-06,0.0
1626092582.861025,0.0644340472383663,5.237445691908269e-05,4.15,2.31,4.724117388832383e-06,4.3945277866441756e-05,1.3414634466171265,-0.001953125,0.009765625,0.001780320982930256,-0.001413784138330899,-0.005821894418927535,-0.005491792756433796,0.34830896360641994,0.36087731034672765,0.0,0.0,7.462985529802334,7.463136811883829,0.010151365076753094,0.010151396414167253,0.0,1.5042825369426179e-05,9.005830621559656e-06,0.0
1626092582.921025,0.05917693720666827,5.341473109358808e-05,4.13,2.32,0.1462576687335968,-0.03288638964295387,0.4878048896789551,-0.0068359375,-0.00048828125,0.06742270242155465,0.01850811890929755,0.012909091892909801,0.007713148638361715,0.3574842798921616,0.35808109434558744,0.5,0.0,7.463737497458486,7.463888780051621,0.010035251487808119,0.010035268023037669,0.0,2.9862787811403112e-05,2.2310032426947803e-05,0.0
1626092582.981025,0.05269159643273311,5.436716447775231e-05,4.11,2.27,0.5246621966362,0.0005669721867889166,3.2317073345184326,0.29833984375,0.04345703125,0.1268139420868857,0.006486676323794876,0.06991949338605544,0.008967637994561085,0.3590823304366684,0.3612656800315031,0.5,0.0,7.464531474694539,7.464682772398435,0.009675658736939284,0.009675692759905884,0.0,8.339362184791219e-05,7.331817459053424e-05,0.0
1626092583.007025,0.04740933060083542,5.5098811579180006e-05,4.02,2.37,0.5036622881889343,0.01577516458928585,-0.9146341681480408,-0.125,-0.09814453125,0.19864262883114384,0.0006721517410499449,0.1413495031767528,-0.0019331808066922504,0.35167246629701243,0.3574337835954939,0.5,0.0,7.465643674292698,7.465795139583043,0.009666531376176438,0.009666667949382804,0.0,-0.00026530901720503756,-8.618621158448006e-05,0.0
1626092583.041025,0.04283473017064733,5.580933844196044e-05,3.9,2.4,0.4982481598854065,-0.032178331166505814,3.4146342277526855,0.2021484375,-0.6396484375,0.22307266075219925,-0.001191293165676911,0.1835802231722473,-0.0017705003803698647,0.3523618459688044,0.3550226756723985,0.5,0.0,7.466387870701946,7.46653964654752,0.009289749134528274,0.009290001865885324,0.0,-0.00021926586234364317,-0.00016571200594458902,0.0
1626092583.101025,0.03916062337803452,5.653789300277297e-05,3.74,2.41,0.3971293270587921,0.0330565944314003,-1.6463414430618286,-0.15576171875,0.13427734375,0.24264021828103705,0.008629699584573587,0.22753100976843904,0.007740261515695918,0.3504323919194309,0.3530964319303074,0.5,0.0,7.468102278342321,7.4682553073614875,0.010493193889315227,0.01049373188869125,0.0,-0.00021964145702852976,-0.00020719094877465053,0.0
1626092583.161025,0.036352708455478895,5.7429336745750244e-05,3.59,2.4,9.921217269948102e-07,9.229039278579876e-06,-0.24390244483947754,-0.001953125,0.0390625,0.1872159398919898,0.020451459952343747,0.2332893280416759,0.002226004343187051,0.35080926968203213,0.35175559585493626,0.0,1.0,7.469500062213973,7.469654551719214,0.010224249242910292,0.010224988072083541,0.0,-0.0001870625618689634,-0.0002153792755091229,0.0
1626092583.221025,0.03440854373339939,5.810769083768083e-05,3.55,2.41,0.008718416094779968,0.6065658330917358,-13.719512939453125,-0.03076171875,-0.02099609375,0.09921044220557527,0.18392543117481802,0.19148603960360425,0.12848469824686132,0.41012738893577927,0.3729086374785861,0.0,1.0,7.470860167635116,7.471016125021272,0.010148136696544312,0.010148956779272971,0.0,-0.0002572793240834289,-0.00020122091436001772,0.0
1626092583.289459,0.03349156409398031,5.8706137360766035e-05,3.62,2.44,0.001049235463142395,-0.09806208312511444,4.146341323852539,-0.0390625,0.0703125,0.05494503175754235,0.14434925451041414,0.118372399889725,0.16418171415137028,0.5365914779127623,0.4865425917128155,0.0,0.0,7.4725606822779485,7.47271757579607,0.00996206838822913,0.00996275871394296,0.0,-0.0005927054388711829,-0.00039966626040614664,0.0
1626092583.307459,0.033136269225265996,5.9203806935578906e-05,3.67,2.45,4.487502792471787e-06,-4.17442133766599e-05,1.2195122241973877,0.00537109375,0.00830078125,0.03099955910324323,0.045370215815931654,0.07844759244769792,0.10308950018483419,0.5411512024500968,0.533924604657081,0.0,0.0,7.473561745620282,7.473718850433185,0.01002590716384384,0.010026448102971569,0.0,-0.0004248436077888834,-0.00046901047066234114,0.0
1626092583.349459,0.03200460748621297,5.977358743081278e-05,3.72,2.45,4.460139734874247e-06,-4.1489674913464114e-05,1.3414634466171265,-0.00390625,0.0146484375,0.017265931852552666,0.008655728252814,0.03698987779571025,0.01801468285586884,0.5395578263941438,0.5436916113452588,0.0,0.0,7.474587765339502,7.474744934890998,0.009787971462044532,0.00978830307987769,0.0,-0.0003166195663333165,-0.00042074826092536316,0.0
1626092583.411459,0.030396467848868337,6.073591737160559e-05,3.74,2.47,4.460139734874247e-06,-4.1489674913464114e-05,1.2804877758026123,-0.01123046875,0.013671875,0.009896669552957574,0.004197661310859986,0.016914815803930228,0.00562565132060372,0.5390922629955961,0.5432895289406483,0.0,-1.0,7.475262380072385,7.475419536199421,0.0089310198424848,0.008931222059311694,0.0,-0.00023781193720273403,-0.00033910594512390646,0.0
1626092583.469459,0.029072487446523455,6.193623916743809e-05,3.76,2.46,0.010968110524117947,-0.44519171118736267,20.2439022064209,0.0283203125,-0.0263671875,0.005567053030606976,-0.14407386205485265,0.002623055351732684,-0.11573094055444479,0.4785707538942531,0.516278246981348,0.0,0.0,7.4763978003930305,7.476554950126053,0.010365859153563584,0.01036598324913441,0.0,-0.00017059064850068534,-0.0002594759867829575,0.0
1626092583.529459,0.028460516437553412,6.144030490484377e-05,3.65,2.45,2.728041636146372e-06,-2.537713044148404e-05,-1.097561001777649,0.0283203125,-0.001953125,0.003912439641062999,-0.10031471474370193,-0.002068414556965836,-0.12419083573314539,0.4222666771087886,0.472609329834266,0.0,0.0,7.477076795313715,7.477233932391523,0.010043069209950744,0.010043148957491444,0.0,-0.00013692184230151437,-0.00021286207830265334,0.0
1626092583.589459,0.02874398684124668,5.8538851331477036e-05,3.71,2.43,2.728041636146372e-06,-2.537713044148404e-05,1.2804877758026123,-0.00830078125,0.00390625,0.0022370883660300343,-0.015064500111079269,-0.005396096540291025,-0.04661235164431332,0.4240138742628555,0.4385351143329507,0.0,0.0,7.477920906436876,7.478078037667235,0.009728864546822574,0.009728908238638694,0.0,-9.45570111107182e-05,-0.00015599447323271632,0.0
1626092583.599459,0.028791797085191344,5.6319113822243955e-05,3.7,2.44,2.728041636146372e-06,-2.537713044148404e-05,1.402438998222351,-0.00244140625,0.01318359375,0.0012656137868844923,-0.00335895617327723,-0.007450281314150747,-0.0078612945563293,0.42474353611013477,0.429209957069357,0.0,0.0,7.478897825566186,7.479054955509552,0.009794025498651082,0.0097940459333071,0.0,-6.025788684513703e-05,-9.588225171187049e-05,0.0
1626092583.6494591,0.029721102022163604,5.266927248626235e-05,3.67,2.43,0.010525969788432121,-0.4119393527507782,7.256097793579102,-0.00537109375,0.00146484375,0.0007759757745195776,-0.0891635914899208,-0.007056384750832228,-0.05107799883787646,0.41911538088240957,0.42347440351413135,0.0,0.0,7.47942973723334,7.479586867774545,0.00894244345125312,0.00894245483933798,0.0,-3.219094900172732e-05,-6.277046976656047e-05,0.0
1626092583.709459,0.030954597146187562,4.870258905506291e-05,3.55,2.43,1.0171766007260885e-06,9.46210820984561e-06,2.1341464519500732,0.0,0.01806640625,0.0018088128291034976,-0.060251701464822234,-0.006297485607232103,-0.07439111794610599,0.34911506311290025,0.3880104219192346,0.0,0.0,7.4804650150260565,7.480622146829834,0.008937628568262348,0.00893763364266449,0.0,-4.426796281879872e-05,-3.630753503208656e-05,0.0
1626092583.769459,0.031942188217551994,4.519098590300857e-05,3.54,2.43,1.0171766007260885e-06,9.46210820984561e-06,1.2195122241973877,-0.005859375,0.01806640625,0.0010577811942276466,-0.0008077891007005797,-0.006095067704553849,-0.010390234016804478,0.3457983043177242,0.3696563858681985,0.0,0.0,7.4814400544403155,7.481597187071083,0.009744376536682904,0.009744379756985933,0.0,-1.7127430587603283e-05,-1.701823639471038e-05,0.0
1626092583.829459,0.03213371572625997,4.212612206123908e-05,3.52,2.42,1.0171766007260885e-06,9.46210820984561e-06,1.2195122241973877,-0.0078125,0.01025390625,0.0005399130610193398,0.0009193429466231545,-0.005822683853885826,-0.0017354518416355575,0.3458228128779868,0.3618434333811016,0.0,0.0,7.482337706239602,7.482494839798586,0.01028120506877584,0.01028120778323632,0.0,1.8787451955672322e-06,2.758771263600805e-06,0.0
1626092583.8894591,0.031097132754774322,3.94877386877415e-05,3.52,2.44,1.0171766007260885e-06,9.46210820984561e-06,1.1585365533828735,-0.0087890625,0.01513671875,0.00030523063201096643,0.0015483999352746175,-0.005187496409854532,0.00028342059399144874,0.3458530568282362,0.3577982873992687,0.0,0.0,7.483082224864147,7.483239359663007,0.010110832311457636,0.010110835041952539,0.0,1.3909071145880698e-05,1.8099417887784717e-05,0.0
1626092583.911459,0.02995708415122102,3.745503852523598e-05,3.49,2.43,0.08967135101556778,0.09923990815877914,-6.463414669036865,-0.01220703125,0.00830078125,0.05335236343249777,0.009547940191194305,0.009338866659543827,0.004403780580989903,0.3494252357433839,0.3557678926108752,0.5,0.0,7.483739687299985,7.483896822362421,0.010073118090982344,0.010073121183413624,0.0,2.179952372084941e-05,2.843057708866977e-05,0.0
1626092583.949459,0.027933008731215365,3.5722333535523366e-05,3.43,2.42,0.4841512143611908,-0.08279959857463837,3.9634146690368652,0.03173828125,0.38037109375,0.12535063856668954,0.00029218347641936035,0.06374927057855248,0.005484334515361946,0.35970459440028635,0.3583231542550195,0.5,0.0,7.4843339294904965,7.484491065048747,0.008865736074044193,0.008865754943110033,0.0,0.00015008218483121918,9.073733404139441e-05,0.0
1626092584.015459,0.024383703784314523,3.418133629088268e-05,3.36,2.42,0.5005041360855103,0.0329388789832592,2.1341464519500732,-0.24853515625,-0.07666015625,0.2969331248292417,-0.007635563072654854,0.19290196480850802,-0.006105404577516708,0.3488501763892326,0.35470593510744874,0.5,0.0,7.485463275120944,7.485620544092076,0.00892368840697414,0.008923867688782793,0.0,-0.0001916498628078849,-2.3427522354043623e-05,0.0
1626092584.069459,0.019813196486224177,3.291994513150292e-05,3.29,2.42,0.5022845268249512,0.032456353306770325,1.9512195587158203,0.04541015625,0.99169921875,0.3824592867760746,0.000877336337863405,0.30674811902957877,-0.0024508948347221654,0.34995043311432716,0.35096988660086503,0.5,0.0,7.487174627938828,7.4873330368790105,0.009740718418469014,0.009741344490456695,0.0,-0.00016369032245538794,-0.00011670101886080946,0.0
1626092584.1294591,0.014384980155843191,3.200005536907382e-05,3.2,2.43,0.5012463927268982,-0.03291994333267212,2.1341464519500732,-0.07373046875,-0.38134765625,0.4281464455380396,-0.001938343944341927,0.3789921383178581,-0.0014881451699251724,0.3479795012244091,0.3489051800111056,0.5,0.0,7.489041739142989,7.489202667367222,0.010141261820361533,0.010142492408053322,0.0,-0.0001554237765258513,-0.00014096530046024333,0.0
1626092584.189459,0.008418379420765109,3.136102312676091e-05,3.09,2.46,0.5012619495391846,-0.03398774936795235,2.682926893234253,0.08837890625,-0.12548828125,0.4578436454439087,0.0006592784001381668,0.442344638349685,-0.001416789944234519,0.3489121551880158,0.3483505365840711,0.5,0.0,7.491729720612749,7.491894973846936,0.009750220146622888,0.00975226760287159,0.0,-0.0001126502600729189,-0.00014092103571292105,0.0
1626092584.203459,0.0038989158134417282,3.089487741678764e-05,3.0,2.46,0.5102805495262146,0.04990590363740921,5.121951103210449,0.16455078125,0.03125,0.47851096134951515,0.004889009626524667,0.48516369688274547,0.004279889961011773,0.34851028033868614,0.34824891665970037,0.5,0.0,7.495386577042746,7.49555898531292,0.010205054045671902,0.01020793435108072,0.0,-0.00010286241002042123,-0.00011976314327846156,0.0
1626092584.249459,-0.0009572407856315964,3.060479527467854e-05,2.88,2.45,0.5021465420722961,-0.033279355615377426,-1.2195122241973877,-0.310546875,0.14208984375,0.4877114744285082,0.0035593275883393873,0.5052969485150247,0.0020445088719716715,0.34897790947449814,0.34847669558296196,0.5,0.0,7.498665496767536,7.4988441694219805,0.009197677695445732,0.00920112365621324,0.0,-8.638403978095748e-05,-0.00011099375740128423,0.0
1626092584.309459,-0.006186686141486984,3.0450104981444986e-05,2.78,2.44,0.502155601978302,-0.03319558501243591,-1.6463414430618286,-0.12255859375,-0.2294921875,0.49314630931551917,0.0031760313658729935,0.5221746265460729,0.004803475122158214,0.3478442197362379,0.3483185568071061,0.5,0.0,7.5033810013899505,7.503569889195155,0.010064241844882811,0.01006845428324819,0.0,-8.195411446346533e-05,-9.414347919443001e-05,0.0
1626092584.3694592,-0.01153750515141878,3.039367048620726e-05,2.64,2.48,0.4985656142234802,-0.06538505107164383,-0.18292683362960815,-0.04931640625,-0.1953125,0.49705225949964765,0.004724411264417028,0.5293347116534206,0.014991158063191167,0.3485537842070701,0.35018149143763694,0.5,0.0,7.507776564064437,7.507974457006551,0.0103365724170205,0.010341260156889477,0.0,-2.6911933609521723e-05,-6.844168655644752e-05,0.0
1626092584.429459,-0.019272750922613793,3.040379168480876e-05,2.58,2.48,0.5083938837051392,0.01620825193822384,-2.5,-0.689453125,-0.04931640625,0.49875061175374624,0.00920278955014814,0.5298888511575294,0.008760007648707721,0.3483666929699208,0.34894763994037153,0.5,0.0,7.511905525068758,7.512111625865918,0.010077928606035616,0.010082810758374344,0.0,-4.533504028603943e-05,-4.873095694652267e-05,0.0
1626092584.489459,-0.02867828326988903,3.04647031478597e-05,2.47,2.48,0.49312445521354675,-0.016812648624181747,2.012195110321045,0.56591796875,-0.404296875,0.49975971547641346,0.005196421537733297,0.5290092060482663,0.006989569428425706,0.34875485406522505,0.34932138819277975,0.5,0.0,7.517034613734453,7.5172513040622855,0.010147196067314861,0.010152322951327427,0.0,-1.731732052429598e-05,-3.389446536754269e-05,0.0
1626092584.515459,-0.03651141346905408,3.052561713082357e-05,2.39,2.5,0.5049172639846802,1.5254111531248782e-05,-3.47560977935791,-0.82275390625,0.50439453125,0.40160483842625294,0.011121963676823802,0.4978070093668249,0.008631319251731264,0.34772930165596744,0.34874672136169005,0.0,0.0,7.520408033093661,7.520632168074149,0.010239362052392098,0.010244553654044095,0.0,-4.297203411751752e-05,-2.5853098686496178e-05,0.0
1626092584.549459,-0.04418099541124855,3.0458664968378584e-05,2.26,2.46,0.22747498750686646,-0.0005164674948900938,2.195122003555298,0.01416015625,0.29248046875,0.3316283952375689,0.011882366572763068,0.4321486446695416,0.011053322055907424,0.348291293820232,0.3492869781857636,0.0,0.0,7.523480772646334,7.523710922119532,0.009205083076013401,0.009209806087237343,0.0,-5.117624677736315e-05,-3.167556452365093e-05,0.0
1626092584.609459,-0.05283330292326683,3.0247456685443575e-05,2.19,2.43,3.2847303828020813e-06,-3.055563138332218e-05,2.2560975551605225,0.001953125,-0.033203125,0.23363953839861903,0.0019641828277524673,0.3483563966312067,0.004752628913909609,0.34680461409122004,0.3487904857878797,0.0,0.0,7.526786035999382,7.52702297794747,0.010065224449262777,0.010069463724899554,0.0,-2.8367497468320933e-05,-3.746801432576202e-05,0.0
1626092584.669459,-0.06241530729196503,2.978189345967004e-05,2.12,2.4,3.2847303828020813e-06,-3.055563138332218e-05,1.2804877758026123,-0.0009765625,-0.0087890625,0.1308072458174019,0.002980057781297049,0.24087114437892687,0.003763932971757823,0.3463949058108086,0.3473103524024948,0.0,0.0,7.5288266990268005,7.529066828012714,0.01033622392321542,0.010339571123208841,0.0,5.219979976624281e-06,-1.647161062545492e-05,0.0
1626092584.729459,-0.07086989794861685,2.8867195897558696e-05,2.16,2.37,3.2847303828020813e-06,-3.055563138332218e-05,1.2804877758026123,-0.0009765625,0.005859375,0.06650663488571273,0.0023505879240737046,0.12787572308224748,0.0025002255405200927,0.34622695641811674,0.34697644233432773,0.0,0.0,7.530338029384765,7.530579758557488,0.0103044617387462,0.010306673889160333,0.0,1.6317647611235878e-05,7.057918391733393e-06,0.0
1626092584.789459,-0.07865672441614642,2.878376467738561e-05,2.16,2.38,3.2847303828020813e-06,-3.055563138332218e-05,1.2804877758026123,0.0,0.0009765625,0.037598022869718965,0.002089311568188557,0.06350016843828711,0.0020838290236554306,0.34621129209575335,0.34694646186285566,0.0,0.0,7.531197863032235,7.531439867091724,0.010160041313789588,0.010161479362903299,0.0,2.0180509408016688e-05,1.8861462947212718e-05,0.0
1626092584.807459,-0.08419804276051168,2.8732558265013646e-05,2.13,2.4,3.2847303828020813e-06,-3.055563138332218e-05,1.2804877758026123,-0.00732421875,0.0078125,0.02125260243933296,0.001826262189684493,0.027796930008197888,0.0018959328571464817,0.3462001514003943,0.34703119016995115,0.0,0.0,7.531885112190126,7.532127164812929,0.010242805729384814,0.01024379262748652,0.0,2.179055752121109e-05,2.4767846247744536e-05,0.0
1626092584.849459,-0.09007046348008955,2.951611362662705e-05,2.14,2.39,3.2847303828020813e-06,-3.055563138332218e-05,1.3414634466171265,-0.00439453125,0.0087890625,0.011843315671815945,0.0021296945144148173,-0.0033604300968238365,0.0019299958328847994,0.3462381660648263,0.34712687442248474,0.0,0.0,7.532803911528239,7.533045843196452,0.010022986663905002,0.010023505943092651,0.0,2.2489828697187367e-05,2.8647706319032944e-05,0.0
1626092584.911459,-0.09630933679034843,2.9901218276995644e-05,2.15,2.4,3.2847303828020813e-06,-3.055563138332218e-05,1.2804877758026123,-0.0029296875,-0.00048828125,0.00678994963703941,0.0017061366548804956,-0.013049542668234567,0.001838215484484106,0.346196609784352,0.34720840748002213,0.0,0.0,7.533376047184287,7.533617901204501,0.009495321577034262,0.009495645349258983,0.0,2.1750333724707276e-05,2.8943499087955887e-05,0.0
1626092584.969459,-0.10280626253743788,3.156890289733467e-05,2.14,2.41,3.2847303828020813e-06,-3.055563138332218e-05,1.3414634466171265,-0.005859375,0.00390625,0.0036975160433184388,0.0018614282583576628,-0.022475799475165915,0.0017318582983805106,0.34626226125859755,0.3473472422118416,0.0,0.0,7.534419393219917,7.534661171129159,0.009876075946011387,0.009876236663638113,0.0,2.147142860822645e-05,2.8537478538021293e-05,0.0
1626092585.029459,-0.10912888939297062,3.485318335094619e-05,2.12,2.41,3.2847303828020813e-06,-3.055563138332218e-05,1.2804877758026123,-0.00146484375,0.005859375,0.0021648395633950554,0.0017501127653134286,-0.023916195155240575,0.0016781838062701912,0.346195630753936,0.3473849002882833,0.0,0.0,7.5348803346380535,7.5351220932650325,0.009866648151303482,0.009866761068507465,0.0,1.9608210117324208e-05,2.767512449718754e-05,0.0
1626092585.089459,-0.11469954879388132,3.9026751484204416e-05,2.15,2.41,3.304882056909264e-06,-3.0743089155294e-05,1.2804877758026123,-0.00048828125,0.00830078125,0.0012234313515406075,0.001755981308762555,-0.02410855139374504,0.0016567990976275148,0.34619519071527344,0.3474388428839654,0.0,0.0,7.535850921410012,7.536092666212914,0.009913111456419195,0.009913170183774501,0.0,1.8216713247262795e-05,2.5376155587981876e-05,0.0
1626092585.099459,-0.11855804137516239,4.2096968459273095e-05,2.13,2.4,3.304882056909264e-06,-3.0743089155294e-05,1.2195122241973877,-0.00830078125,0.0107421875,0.0006899121968753768,0.002006209820622236,-0.022039300784900562,0.0018740067569266408,0.3462099055771224,0.34750261062902704,0.0,0.0,7.536614252859334,7.536856003081124,0.00967378640107018,0.009673825308832353,0.0,1.677168685694677e-05,2.30777854828525e-05,0.0
1626092585.1494591,-0.12175638129092693,4.535634055706295e-05,2.12,2.39,3.304882056909264e-06,-3.0743089155294e-05,1.2804877758026123,-0.0068359375,0.017578125,0.00039077293902006023,0.0018482022253027864,-0.020460354788880152,0.001745452723101447,0.34619972767039586,0.347558263740516,0.0,0.0,7.537310060360379,7.537551818193939,0.00974720668309964,0.009747239426231487,0.0,1.5248623606311259e-05,2.1217956089588207e-05,0.0
1626092585.209459,-0.12356291563246094,4.8213146472351955e-05,2.13,2.4,3.2847303828020813e-06,-3.055563138332218e-05,1.2804877758026123,-0.01220703125,0.0009765625,0.00021585306152112102,0.0018102470034789958,-0.01732649369022136,0.0017530136435207212,0.34624031992665616,0.3475982305206341,0.0,0.0,7.538232002707052,7.538473775517561,0.00950484353424223,0.009504872991388335,0.0,1.3992768533273727e-05,1.840872249554002e-05,0.0
1626092585.269459,-0.1235702928660327,5.033669202222982e-05,2.15,2.4,3.304882056909264e-06,-3.0743089155294e-05,1.2804877758026123,-0.00927734375,0.01220703125,0.00010813198522697453,0.0019046047416656578,-0.016255050183106492,0.001776491808197242,0.34620259988487057,0.3476535080015952,0.0,0.0,7.539202324166601,7.539444105827589,0.010371859894453342,0.010371890445212554,0.0,1.2007114825501936e-05,1.629527438408074e-05,0.0
