time,la_x,la_y,uwb_x,uwb_y,vel_linear_x,vel_angular_z,mpu_ang_vel_z,mpu_linear_acc_x,mpu_linear_acc_y,odom_linear_x,odom_angular_z,odom_filtered_linear_x,odom_filtered_angular_z,odom_yaw,odom_filtered_yaw
1624632841.955912,-7.378243117003564e-11,-5.839901967484634e-10,0.0,0.0,,,,,,-1.348317217714487e-06,0.0019575175745633533,-1.3618682029575865e-06,0.0018212308809451062,1.029797890693021,1.0313426254564926
1624632842.001912,-5.699977922562747e-10,-6.011187490342462e-10,0.0,0.0,,,,,,-1.3680386966336408e-06,0.0018626426392995574,-1.3628162740083935e-06,0.0017832063069305743,1.0297673074531137,1.0313343451546995
1624632842.001912,-5.699977922562747e-10,-6.011187490342462e-10,0.0,0.0,,,,,,-1.3680386966336408e-06,0.0018626426392995574,-1.3628162740083935e-06,0.0017832063069305743,1.0297673074531137,1.0313343451546995
1624632842.001912,-5.699977922562747e-10,-6.011187490342462e-10,0.0,0.0,2.489831558705191e-06,-2.316122299816925e-05,,,,-1.3680386966336408e-06,0.0018626426392995574,-1.3628162740083935e-06,0.0017832063069305743,1.0297673074531137,1.0313343451546995
1624632842.001912,-5.699977922562747e-10,-6.011187490342462e-10,0.0,0.0,2.489831558705191e-06,-2.316122299816925e-05,1.2804877758026123,-0.01318359375,0.01611328125,-1.3680386966336408e-06,0.0018626426392995574,-1.3628162740083935e-06,0.0017832063069305743,1.0297673074531137,1.0313343451546995
1624632842.001912,-5.699977922562747e-10,-6.011187490342462e-10,0.0,0.0,2.489831558705191e-06,-2.316122299816925e-05,1.2804877758026123,-0.01318359375,0.01611328125,-1.3680386966336408e-06,0.0018626426392995574,-1.3628162740083935e-06,0.0017832063069305743,1.0297673074531137,1.0313343451546995
1624632842.061912,-9.790558520489291e-10,-6.168715835930562e-10,0.0,0.0,2.489831558705191e-06,-2.316122299816925e-05,1.2804877758026123,-0.01318359375,0.01611328125,-1.3677801496159104e-06,0.0018242040037334234,-1.3636292763467675e-06,0.001745337117449034,1.0297647656773283,1.0313476967017707
1624632842.061912,-9.790558520489291e-10,-6.168715835930562e-10,0.0,0.0,2.489831558705191e-06,-2.316122299816925e-05,1.2804877758026123,-0.01318359375,0.01611328125,-1.3677801496159104e-06,0.0018242040037334234,-1.3636292763467675e-06,0.001745337117449034,1.0297647656773283,1.0313476967017707
1624632842.061912,-9.790558520489291e-10,-6.168715835930562e-10,5.81,4.89,2.489831558705191e-06,-2.316122299816925e-05,1.2804877758026123,-0.01318359375,0.01611328125,-1.3677801496159104e-06,0.0018242040037334234,-1.3636292763467675e-06,0.001745337117449034,1.0297647656773283,1.0313476967017707
1624632842.061912,-9.790558520489291e-10,-6.168715835930562e-10,5.81,4.89,2.489831558705191e-06,-2.316122299816925e-05,1.2804877758026123,-0.01318359375,0.01611328125,-1.3677801496159104e-06,0.0018242040037334234,-1.3636292763467675e-06,0.001745337117449034,1.0297647656773283,1.0313476967017707
1624632842.061912,-9.790558520489291e-10,-6.168715835930562e-10,5.81,4.89,2.489831558705191e-06,-2.316122299816925e-05,1.2804877758026123,-0.01318359375,0.01611328125,-1.3677801496159104e-06,0.0018242040037334234,-1.3636292763467675e-06,0.001745337117449034,1.0297647656773283,1.0313476967017707
1624632842.120554,-1.496716732305272e-09,-7.400651563190573e-10,5.81,4.89,2.489831558705191e-06,-2.316122299816925e-05,1.2804877758026123,-0.01318359375,0.01611328125,-1.3698112671486326e-06,0.0017122812437632084,-1.3646729531862853e-06,0.0016682229639902839,1.0297598675085027,1.0313521231991227
1624632842.120554,-1.496716732305272e-09,-7.400651563190573e-10,5.81,4.89,2.489831558705191e-06,-2.316122299816925e-05,1.2804877758026123,-0.01318359375,0.01611328125,-1.3698112671486326e-06,0.0017122812437632084,-1.3646729531862853e-06,0.0016682229639902839,1.0297598675085027,1.0313521231991227
1624632842.120554,-1.496716732305272e-09,-7.400651563190573e-10,5.81,4.89,2.489831558705191e-06,-2.316122299816925e-05,1.2804877758026123,-0.01318359375,0.01611328125,-1.3698112671486326e-06,0.0017122812437632084,-1.3646729531862853e-06,0.0016682229639902839,1.0297598675085027,1.0313521231991227
1624632842.120554,-1.496716732305272e-09,-7.400651563190573e-10,5.81,4.89,2.489831558705191e-06,-2.316122299816925e-05,1.4634146690368652,-0.01220703125,0.00537109375,-1.3698112671486326e-06,0.0017122812437632084,-1.3646729531862853e-06,0.0016682229639902839,1.0297598675085027,1.0313521231991227
1624632842.120554,-1.496716732305272e-09,-7.400651563190573e-10,5.81,4.89,2.489831558705191e-06,-2.316122299816925e-05,1.4634146690368652,-0.01220703125,0.00537109375,-1.3698112671486326e-06,0.0017122812437632084,-1.3646729531862853e-06,0.0016682229639902839,1.0297598675085027,1.0313521231991227
1624632842.180554,-2.0380177825296283e-09,-8.922618434239907e-10,5.81,4.89,2.489831558705191e-06,-2.316122299816925e-05,1.4634146690368652,-0.01220703125,0.00537109375,-1.3710645196656246e-06,0.0019046608321043117,-1.3646729531862853e-06,0.0016682229639902839,1.0297663551918212,1.0313521231991227
1624632842.180554,-2.0380177825296283e-09,-8.922618434239907e-10,5.81,4.88,2.489831558705191e-06,-2.316122299816925e-05,1.4634146690368652,-0.01220703125,0.00537109375,-1.3710645196656246e-06,0.0019046608321043117,-1.3657953280516257e-06,0.0017038450051717658,1.0297663551918212,1.0313613197254234
1624632842.180554,-2.0380177825296283e-09,-8.922618434239907e-10,5.81,4.88,2.489831558705191e-06,-2.316122299816925e-05,1.4634146690368652,-0.01220703125,0.00537109375,-1.3710645196656246e-06,0.0019046608321043117,-1.3657953280516257e-06,0.0017038450051717658,1.0297663551918212,1.0313613197254234
1624632842.180554,-2.0380177825296283e-09,-8.922618434239907e-10,5.81,4.88,2.489831558705191e-06,-2.316122299816925e-05,1.4634146690368652,-0.01220703125,0.00537109375,-1.3710645196656246e-06,0.0019046608321043117,-1.3657953280516257e-06,0.0017038450051717658,1.0297663551918212,1.0313613197254234
1624632842.180554,-2.0380177825296283e-09,-8.922618434239907e-10,5.81,4.88,2.489831558705191e-06,-2.316122299816925e-05,1.4634146690368652,-0.01220703125,0.00537109375,-1.3710645196656246e-06,0.0019046608321043117,-1.3657953280516257e-06,0.0017038450051717658,1.0297663551918212,1.0313613197254234
1624632842.180554,-2.4269137172466064e-09,-1.0016276941412022e-09,5.81,4.88,2.489831558705191e-06,-2.316122299816925e-05,1.4634146690368652,-0.01220703125,0.00537109375,-1.3710645196656246e-06,0.0019046608321043117,-1.366537189074546e-06,0.0017227529175380773,1.0297663551918212,1.0312788768152685
1624632842.180554,-2.4269137172466064e-09,-1.0016276941412022e-09,5.81,4.88,2.489831558705191e-06,-2.316122299816925e-05,1.4634146690368652,-0.01220703125,0.00537109375,-1.3710645196656246e-06,0.0019046608321043117,-1.366537189074546e-06,0.0017227529175380773,1.0297663551918212,1.0312788768152685
1624632842.180554,-2.4269137172466064e-09,-1.0016276941412022e-09,5.81,4.88,2.489831558705191e-06,-2.316122299816925e-05,1.2804877758026123,-0.0068359375,0.009765625,-1.3710645196656246e-06,0.0019046608321043117,-1.366537189074546e-06,0.0017227529175380773,1.0297663551918212,1.0312788768152685
1624632842.180554,-2.4269137172466064e-09,-1.0016276941412022e-09,5.81,4.88,2.489831558705191e-06,-2.316122299816925e-05,1.2804877758026123,-0.0068359375,0.009765625,-1.3710645196656246e-06,0.0019046608321043117,-1.366537189074546e-06,0.0017227529175380773,1.0297663551918212,1.0312788768152685
1624632842.180554,-2.4269137172466064e-09,-1.0016276941412022e-09,5.81,4.88,2.489831558705191e-06,-2.316122299816925e-05,1.2804877758026123,-0.0068359375,0.009765625,-1.3350582726319249e-06,0.001978692702058312,-1.366537189074546e-06,0.0017227529175380773,1.029820318111836,1.0312788768152685
1624632842.266554,1.5532589544767923e-10,-1.1201652990805116e-09,5.81,4.88,2.489831558705191e-06,-2.316122299816925e-05,1.2804877758026123,-0.0068359375,0.009765625,-1.3350582726319249e-06,0.001978692702058312,-1.366537189074546e-06,0.0017227529175380773,1.029820318111836,1.0312788768152685
1624632842.266554,1.5532589544767923e-10,-1.1201652990805116e-09,5.81,4.88,2.489831558705191e-06,-2.316122299816925e-05,1.2804877758026123,-0.0068359375,0.009765625,-1.3350582726319249e-06,0.001978692702058312,-1.3618201713888246e-06,0.0018052445504897227,1.029820318111836,1.0313741584743252
1624632842.266554,1.5532589544767923e-10,-1.1201652990805116e-09,5.81,4.88,2.489831558705191e-06,-2.316122299816925e-05,1.2804877758026123,-0.0068359375,0.009765625,-1.3350582726319249e-06,0.001978692702058312,-1.3618201713888246e-06,0.0018052445504897227,1.029820318111836,1.0313741584743252
1624632842.266554,1.5532589544767923e-10,-1.1201652990805116e-09,5.81,4.88,2.489831558705191e-06,-2.316122299816925e-05,1.2804877758026123,-0.0068359375,0.009765625,-1.3350582726319249e-06,0.001978692702058312,-1.3618201713888246e-06,0.0018052445504897227,1.029820318111836,1.0313741584743252
1624632842.266554,1.5532589544767923e-10,-1.1201652990805116e-09,5.81,4.88,2.489831558705191e-06,-2.316122299816925e-05,1.2804877758026123,-0.0068359375,0.009765625,-1.3715266623546847e-06,0.0019060681406295956,-1.3618201713888246e-06,0.0018052445504897227,1.029767953451964,1.0313741584743252
1624632842.300554,-6.208544343980971e-10,-1.21869880822833e-09,5.81,4.88,2.489831558705191e-06,-2.316122299816925e-05,1.2804877758026123,-0.0068359375,0.009765625,-1.3715266623546847e-06,0.0019060681406295956,-1.3632940742972783e-06,0.0017887507908457157,1.029767953451964,1.0313442407000402
1624632842.300554,-6.208544343980971e-10,-1.21869880822833e-09,5.81,4.88,2.43054978454893e-06,-2.2609765437664464e-05,1.2804877758026123,-0.0068359375,0.009765625,-1.3715266623546847e-06,0.0019060681406295956,-1.3632940742972783e-06,0.0017887507908457157,1.029767953451964,1.0313442407000402
1624632842.300554,-6.208544343980971e-10,-1.21869880822833e-09,5.81,4.88,2.43054978454893e-06,-2.2609765437664464e-05,1.2804877758026123,-0.0068359375,0.009765625,-1.3715266623546847e-06,0.0019060681406295956,-1.3632940742972783e-06,0.0017887507908457157,1.029767953451964,1.0313442407000402
1624632842.300554,-6.208544343980971e-10,-1.21869880822833e-09,5.81,4.88,2.43054978454893e-06,-2.2609765437664464e-05,1.402438998222351,-0.01318359375,0.0146484375,-1.3715266623546847e-06,0.0019060681406295956,-1.3632940742972783e-06,0.0017887507908457157,1.029767953451964,1.0313442407000402
1624632842.300554,-6.208544343980971e-10,-1.21869880822833e-09,5.81,4.88,2.43054978454893e-06,-2.2609765437664464e-05,1.402438998222351,-0.01318359375,0.0146484375,-1.3570719792368401e-06,0.0020209109979715248,-1.3632940742972783e-06,0.0017887507908457157,1.029791254079665,1.0313442407000402
1624632842.370554,-9.54166376308679e-11,-1.2997600354176846e-09,5.81,4.88,2.43054978454893e-06,-2.2609765437664464e-05,1.402438998222351,-0.01318359375,0.0146484375,-1.3570719792368401e-06,0.0020209109979715248,-1.3632940742972783e-06,0.0017887507908457157,1.029791254079665,1.0313442407000402
1624632842.370554,-9.54166376308679e-11,-1.2997600354176846e-09,5.82,4.87,2.43054978454893e-06,-2.2609765437664464e-05,1.402438998222351,-0.01318359375,0.0146484375,-1.3570719792368401e-06,0.0020209109979715248,-1.3623355614926267e-06,0.0018444592718565463,1.029791254079665,1.0313958807365038
1624632842.370554,-9.54166376308679e-11,-1.2997600354176846e-09,5.82,4.87,2.489831558705191e-06,-2.316122299816925e-05,1.402438998222351,-0.01318359375,0.0146484375,-1.3570719792368401e-06,0.0020209109979715248,-1.3623355614926267e-06,0.0018444592718565463,1.029791254079665,1.0313958807365038
1624632842.370554,-9.54166376308679e-11,-1.2997600354176846e-09,5.82,4.87,2.489831558705191e-06,-2.316122299816925e-05,1.402438998222351,-0.01318359375,0.0146484375,-1.3570719792368401e-06,0.0020209109979715248,-1.3623355614926267e-06,0.0018444592718565463,1.029791254079665,1.0313958807365038
1624632842.370554,-9.54166376308679e-11,-1.2997600354176846e-09,5.82,4.87,2.489831558705191e-06,-2.316122299816925e-05,1.402438998222351,-0.01318359375,0.0146484375,-1.3707860305587732e-06,0.0019141404214679022,-1.3623355614926267e-06,0.0018444592718565463,1.029768783045108,1.0313958807365038
1624632842.420554,-8.049168664551809e-10,-1.3581919641435773e-09,5.82,4.87,2.489831558705191e-06,-2.316122299816925e-05,1.402438998222351,-0.01318359375,0.0146484375,-1.3707860305587732e-06,0.0019141404214679022,-1.363693676569765e-06,0.0018049766023911667,1.029768783045108,1.0313904311717008
1624632842.420554,-8.049168664551809e-10,-1.3581919641435773e-09,5.82,4.87,2.489831558705191e-06,-2.316122299816925e-05,1.3414634466171265,-0.021484375,0.00830078125,-1.3707860305587732e-06,0.0019141404214679022,-1.363693676569765e-06,0.0018049766023911667,1.029768783045108,1.0313904311717008
1624632842.420554,-8.049168664551809e-10,-1.3581919641435773e-09,5.82,4.87,2.489831558705191e-06,-2.316122299816925e-05,1.3414634466171265,-0.021484375,0.00830078125,-1.3707860305587732e-06,0.0019141404214679022,-1.363693676569765e-06,0.0018049766023911667,1.029768783045108,1.0313904311717008
1624632842.420554,-8.049168664551809e-10,-1.3581919641435773e-09,5.82,4.87,2.489831558705191e-06,-2.316122299816925e-05,1.3414634466171265,-0.021484375,0.00830078125,-1.3707860305587732e-06,0.0019141404214679022,-1.363693676569765e-06,0.0018049766023911667,1.029768783045108,1.0313904311717008
1624632842.480554,-1.4628712603180151e-09,-1.396281708361303e-09,5.82,4.87,2.489831558705191e-06,-2.316122299816925e-05,1.3414634466171265,-0.021484375,0.00830078125,-1.3707860305587732e-06,0.0019141404214679022,-1.3649980906750354e-06,0.001741240516058612,1.029768783045108,1.0313975468362548
1624632842.480554,-1.4628712603180151e-09,-1.396281708361303e-09,5.82,4.87,2.489831558705191e-06,-2.316122299816925e-05,1.3414634466171265,-0.021484375,0.00830078125,-1.371433840047359e-06,0.001810690979766725,-1.3649980906750354e-06,0.001741240516058612,1.029765506524134,1.0313975468362548
1624632842.480554,-1.4628712603180151e-09,-1.396281708361303e-09,5.82,4.88,2.489831558705191e-06,-2.316122299816925e-05,1.3414634466171265,-0.021484375,0.00830078125,-1.371433840047359e-06,0.001810690979766725,-1.3649980906750354e-06,0.001741240516058612,1.029765506524134,1.0313975468362548
1624632842.480554,-1.4628712603180151e-09,-1.396281708361303e-09,5.82,4.88,2.489831558705191e-06,-2.316122299816925e-05,1.3414634466171265,-0.021484375,0.00830078125,-1.371433840047359e-06,0.001810690979766725,-1.3649980906750354e-06,0.001741240516058612,1.029765506524134,1.0313975468362548
1624632842.480554,-1.4628712603180151e-09,-1.396281708361303e-09,5.82,4.88,2.489831558705191e-06,-2.316122299816925e-05,1.3414634466171265,-0.021484375,0.00830078125,-1.371433840047359e-06,0.001810690979766725,-1.3649980906750354e-06,0.001741240516058612,1.029765506524134,1.0313975468362548
1624632842.480554,-1.936109621134442e-09,-1.4236917507889361e-09,5.82,4.88,2.5520773760945303e-06,-2.374025461904239e-05,1.3414634466171265,-0.021484375,0.00830078125,-1.371433840047359e-06,0.001810690979766725,-1.3659015754244565e-06,0.0017213438872197388,1.029765506524134,1.03130989768884
1624632842.480554,-1.936109621134442e-09,-1.4236917507889361e-09,5.82,4.88,2.5520773760945303e-06,-2.374025461904239e-05,1.3414634466171265,-0.021484375,0.00830078125,-1.371433840047359e-06,0.001810690979766725,-1.3659015754244565e-06,0.0017213438872197388,1.029765506524134,1.03130989768884
1624632842.480554,-1.936109621134442e-09,-1.4236917507889361e-09,5.82,4.88,2.5520773760945303e-06,-2.374025461904239e-05,1.402438998222351,-0.0087890625,-0.00341796875,-1.371433840047359e-06,0.001810690979766725,-1.3659015754244565e-06,0.0017213438872197388,1.029765506524134,1.03130989768884
1624632842.480554,-1.936109621134442e-09,-1.4236917507889361e-09,5.82,4.88,2.5520773760945303e-06,-2.374025461904239e-05,1.402438998222351,-0.0087890625,-0.00341796875,-1.371433840047359e-06,0.001810690979766725,-1.3659015754244565e-06,0.0017213438872197388,1.029765506524134,1.03130989768884
1624632842.480554,-1.936109621134442e-09,-1.4236917507889361e-09,5.82,4.88,2.5520773760945303e-06,-2.374025461904239e-05,1.402438998222351,-0.0087890625,-0.00341796875,-1.371433840047359e-06,0.001810690979766725,-1.3659015754244565e-06,0.0017213438872197388,1.029765506524134,1.03130989768884
1624632842.558554,-3.2088177433461124e-10,-1.4369605484901933e-09,5.82,4.88,2.5520773760945303e-06,-2.374025461904239e-05,1.402438998222351,-0.0087890625,-0.00341796875,-1.3459299385125173e-06,0.0018819071347174702,-1.3659015754244565e-06,0.0017213438872197388,1.0297997885586487,1.03130989768884
1624632842.558554,-3.2088177433461124e-10,-1.4369605484901933e-09,5.82,4.88,2.5520773760945303e-06,-2.374025461904239e-05,1.402438998222351,-0.0087890625,-0.00341796875,-1.3459299385125173e-06,0.0018819071347174702,-1.362973133793888e-06,0.0017572914721830475,1.0297997885586487,1.0313805867614263
1624632842.558554,-3.2088177433461124e-10,-1.4369605484901933e-09,5.82,4.88,2.489831558705191e-06,-2.316122299816925e-05,1.402438998222351,-0.0087890625,-0.00341796875,-1.3459299385125173e-06,0.0018819071347174702,-1.362973133793888e-06,0.0017572914721830475,1.0297997885586487,1.0313805867614263
1624632842.558554,-3.2088177433461124e-10,-1.4369605484901933e-09,5.82,4.88,2.489831558705191e-06,-2.316122299816925e-05,1.402438998222351,-0.0087890625,-0.00341796875,-1.3459299385125173e-06,0.0018819071347174702,-1.362973133793888e-06,0.0017572914721830475,1.0297997885586487,1.0313805867614263
1624632842.558554,-3.2088177433461124e-10,-1.4369605484901933e-09,5.82,4.88,2.489831558705191e-06,-2.316122299816925e-05,1.402438998222351,-0.0087890625,-0.00341796875,-1.3459299385125173e-06,0.0018819071347174702,-1.362973133793888e-06,0.0017572914721830475,1.0297997885586487,1.0313805867614263
1624632842.600554,-9.627828739237067e-10,-1.4368185593681904e-09,5.82,4.88,2.489831558705191e-06,-2.316122299816925e-05,1.402438998222351,-0.0087890625,-0.00341796875,-1.3709904481506465e-06,0.0017978575249128395,-1.3642091557329936e-06,0.0017187504060168957,1.0297636710125269,1.031360762873762
1624632842.600554,-9.627828739237067e-10,-1.4368185593681904e-09,5.82,4.88,2.489831558705191e-06,-2.316122299816925e-05,1.402438998222351,-0.0087890625,-0.00341796875,-1.3709904481506465e-06,0.0017978575249128395,-1.3642091557329936e-06,0.0017187504060168957,1.0297636710125269,1.031360762873762
1624632842.600554,-9.627828739237067e-10,-1.4368185593681904e-09,5.82,4.88,2.489831558705191e-06,-2.316122299816925e-05,1.402438998222351,-0.0087890625,-0.00341796875,-1.3709904481506465e-06,0.0017978575249128395,-1.3642091557329936e-06,0.0017187504060168957,1.0297636710125269,1.031360762873762
1624632842.600554,-9.627828739237067e-10,-1.4368185593681904e-09,5.82,4.88,2.489831558705191e-06,-2.316122299816925e-05,1.402438998222351,-0.01513671875,0.0087890625,-1.3709904481506465e-06,0.0017978575249128395,-1.3642091557329936e-06,0.0017187504060168957,1.0297636710125269,1.031360762873762
1624632842.600554,-9.627828739237067e-10,-1.4368185593681904e-09,5.82,4.88,2.489831558705191e-06,-2.316122299816925e-05,1.402438998222351,-0.01513671875,0.0087890625,-1.3709904481506465e-06,0.0017978575249128395,-1.3642091557329936e-06,0.0017187504060168957,1.0297636710125269,1.031360762873762
1624632842.662554,-1.2242812144939549e-09,-1.4242754979987111e-09,5.82,4.88,2.489831558705191e-06,-2.316122299816925e-05,1.402438998222351,-0.01513671875,0.0087890625,-1.3674171596616347e-06,0.0019636949540425886,-1.3647669624988508e-06,0.0017720620184709702,1.029771600267228,1.031381944458566
1624632842.662554,-1.2242812144939549e-09,-1.4242754979987111e-09,5.82,4.88,2.489831558705191e-06,-2.316122299816925e-05,1.402438998222351,-0.01513671875,0.0087890625,-1.3674171596616347e-06,0.0019636949540425886,-1.3647669624988508e-06,0.0017720620184709702,1.029771600267228,1.031381944458566
1624632842.662554,-1.2242812144939549e-09,-1.4242754979987111e-09,5.81,4.87,2.489831558705191e-06,-2.316122299816925e-05,1.402438998222351,-0.01513671875,0.0087890625,-1.3674171596616347e-06,0.0019636949540425886,-1.3647669624988508e-06,0.0017720620184709702,1.029771600267228,1.031381944458566
1624632842.662554,-1.2242812144939549e-09,-1.4242754979987111e-09,5.81,4.87,2.489831558705191e-06,-2.316122299816925e-05,1.402438998222351,-0.01513671875,0.0087890625,-1.3674171596616347e-06,0.0019636949540425886,-1.3647669624988508e-06,0.0017720620184709702,1.029771600267228,1.031381944458566
1624632842.662554,-1.2242812144939549e-09,-1.4242754979987111e-09,5.81,4.87,2.489831558705191e-06,-2.316122299816925e-05,1.402438998222351,-0.01513671875,0.0087890625,-1.3674171596616347e-06,0.0019636949540425886,-1.3647669624988508e-06,0.0017720620184709702,1.029771600267228,1.031381944458566
1624632842.720554,-1.6213737775536645e-09,-1.401169866830958e-09,5.81,4.87,2.489831558705191e-06,-2.316122299816925e-05,1.402438998222351,-0.01513671875,0.0087890625,-1.3695341307366086e-06,0.0018443193759588822,-1.3655948282195215e-06,0.0017321101147661192,1.029765129634475,1.0313879472044418
1624632842.720554,-1.6213737775536645e-09,-1.401169866830958e-09,5.81,4.87,2.489831558705191e-06,-2.316122299816925e-05,1.402438998222351,-0.01513671875,0.0087890625,-1.3695341307366086e-06,0.0018443193759588822,-1.3655948282195215e-06,0.0017321101147661192,1.029765129634475,1.0313879472044418
1624632842.720554,-1.6213737775536645e-09,-1.401169866830958e-09,5.81,4.87,2.489831558705191e-06,-2.316122299816925e-05,1.402438998222351,-0.01513671875,0.0087890625,-1.3695341307366086e-06,0.0018443193759588822,-1.3655948282195215e-06,0.0017321101147661192,1.029765129634475,1.0313879472044418
1624632842.720554,-1.6213737775536645e-09,-1.401169866830958e-09,5.81,4.87,2.489831558705191e-06,-2.316122299816925e-05,1.402438998222351,-0.01318359375,0.0146484375,-1.3695341307366086e-06,0.0018443193759588822,-1.3655948282195215e-06,0.0017321101147661192,1.029765129634475,1.0313879472044418
1624632842.720554,-1.6213737775536645e-09,-1.401169866830958e-09,5.81,4.87,2.489831558705191e-06,-2.316122299816925e-05,1.402438998222351,-0.01318359375,0.0146484375,-1.3695341307366086e-06,0.0018443193759588822,-1.3655948282195215e-06,0.0017321101147661192,1.029765129634475,1.0313879472044418
1624632842.780554,-1.9790803851937564e-09,-1.3689984351287162e-09,5.81,4.87,2.489831558705191e-06,-2.316122299816925e-05,1.402438998222351,-0.01318359375,0.0146484375,-1.3698547146845568e-06,0.001984777577500303,-1.3663747044344052e-06,0.001773332062330807,1.0297700994372456,1.0313993023902686
1624632842.780554,-1.9790803851937564e-09,-1.3689984351287162e-09,5.81,4.88,2.489831558705191e-06,-2.316122299816925e-05,1.402438998222351,-0.01318359375,0.0146484375,-1.3698547146845568e-06,0.001984777577500303,-1.3663747044344052e-06,0.001773332062330807,1.0297700994372456,1.0313993023902686
1624632842.780554,-1.9790803851937564e-09,-1.3689984351287162e-09,5.81,4.88,2.489831558705191e-06,-2.316122299816925e-05,1.402438998222351,-0.01318359375,0.0146484375,-1.3698547146845568e-06,0.001984777577500303,-1.3663747044344052e-06,0.001773332062330807,1.0297700994372456,1.0313993023902686
1624632842.780554,-1.9790803851937564e-09,-1.3689984351287162e-09,5.81,4.88,2.489831558705191e-06,-2.316122299816925e-05,1.402438998222351,-0.01318359375,0.0146484375,-1.3698547146845568e-06,0.001984777577500303,-1.3663747044344052e-06,0.001773332062330807,1.0297700994372456,1.0313993023902686
1624632842.780554,-1.9790803851937564e-09,-1.3689984351287162e-09,5.81,4.88,2.489831558705191e-06,-2.316122299816925e-05,1.402438998222351,-0.01318359375,0.0146484375,-1.3698547146845568e-06,0.001984777577500303,-1.3663747044344052e-06,0.001773332062330807,1.0297700994372456,1.0313993023902686
1624632842.780554,-2.236009264615376e-09,-1.3459050842820933e-09,5.81,4.88,2.489831558705191e-06,-2.316122299816925e-05,1.402438998222351,-0.01318359375,0.0146484375,-1.3698547146845568e-06,0.001984777577500303,-1.3668650024789746e-06,0.0017945077022396764,1.0297700994372456,1.0313151455840357
1624632842.780554,-2.236009264615376e-09,-1.3459050842820933e-09,5.81,4.88,2.489831558705191e-06,-2.316122299816925e-05,1.402438998222351,-0.01318359375,0.0146484375,-1.3698547146845568e-06,0.001984777577500303,-1.3668650024789746e-06,0.0017945077022396764,1.0297700994372456,1.0313151455840357
1624632842.780554,-2.236009264615376e-09,-1.3459050842820933e-09,5.81,4.88,2.489831558705191e-06,-2.316122299816925e-05,1.402438998222351,-0.01318359375,0.0146484375,-1.3698547146845568e-06,0.001984777577500303,-1.3668650024789746e-06,0.0017945077022396764,1.0297700994372456,1.0313151455840357
1624632842.780554,-2.236009264615376e-09,-1.3459050842820933e-09,5.81,4.88,2.489831558705191e-06,-2.316122299816925e-05,1.402438998222351,-0.01318359375,0.0146484375,-1.3698547146845568e-06,0.001984777577500303,-1.3668650024789746e-06,0.0017945077022396764,1.0297700994372456,1.0313151455840357
1624632842.780554,-2.236009264615376e-09,-1.3459050842820933e-09,5.81,4.88,2.489831558705191e-06,-2.316122299816925e-05,1.3414634466171265,-0.001953125,0.005859375,-1.3698547146845568e-06,0.001984777577500303,-1.3668650024789746e-06,0.0017945077022396764,1.0297700994372456,1.0313151455840357
1624632842.870554,9.60937332313048e-10,-1.3109241990696947e-09,5.81,4.88,2.489831558705191e-06,-2.316122299816925e-05,1.3414634466171265,-0.001953125,0.005859375,-1.3280820778109258e-06,0.0018576794074104922,-1.360963110982172e-06,0.0017904286384985543,1.0298234944861246,1.031419615910349
1624632842.870554,9.60937332313048e-10,-1.3109241990696947e-09,5.81,4.87,2.489831558705191e-06,-2.316122299816925e-05,1.3414634466171265,-0.001953125,0.005859375,-1.3280820778109258e-06,0.0018576794074104922,-1.360963110982172e-06,0.0017904286384985543,1.0298234944861246,1.031419615910349
1624632842.870554,9.60937332313048e-10,-1.3109241990696947e-09,5.81,4.87,2.489831558705191e-06,-2.316122299816925e-05,1.3414634466171265,-0.001953125,0.005859375,-1.3280820778109258e-06,0.0018576794074104922,-1.360963110982172e-06,0.0017904286384985543,1.0298234944861246,1.031419615910349
1624632842.870554,9.60937332313048e-10,-1.3109241990696947e-09,5.81,4.87,2.489831558705191e-06,-2.316122299816925e-05,1.3414634466171265,-0.001953125,0.005859375,-1.3280820778109258e-06,0.0018576794074104922,-1.360963110982172e-06,0.0017904286384985543,1.0298234944861246,1.031419615910349
1624632842.870554,9.60937332313048e-10,-1.3109241990696947e-09,5.81,4.87,2.489831558705191e-06,-2.316122299816925e-05,1.3414634466171265,-0.001953125,0.005859375,-1.3280820778109258e-06,0.0018576794074104922,-1.360963110982172e-06,0.0017904286384985543,1.0298234944861246,1.031419615910349
1624632842.900554,2.417321133094373e-10,-1.2726615001552724e-09,5.81,4.87,2.489831558705191e-06,-2.316122299816925e-05,1.3414634466171265,-0.001953125,0.005859375,-1.3699573026823957e-06,0.0017968242848522098,-1.3623059532966828e-06,0.001740574617461954,1.0297645589534008,1.0313772076158236
1624632842.900554,2.417321133094373e-10,-1.2726615001552724e-09,5.81,4.87,2.489831558705191e-06,-2.316122299816925e-05,1.3414634466171265,-0.001953125,0.005859375,-1.3699573026823957e-06,0.0017968242848522098,-1.3623059532966828e-06,0.001740574617461954,1.0297645589534008,1.0313772076158236
1624632842.900554,2.417321133094373e-10,-1.2726615001552724e-09,5.81,4.87,2.489831558705191e-06,-2.316122299816925e-05,1.2804877758026123,-0.0126953125,0.0126953125,-1.3699573026823957e-06,0.0017968242848522098,-1.3623059532966828e-06,0.001740574617461954,1.0297645589534008,1.0313772076158236
1624632842.900554,2.417321133094373e-10,-1.2726615001552724e-09,5.81,4.87,2.489831558705191e-06,-2.316122299816925e-05,1.2804877758026123,-0.0126953125,0.0126953125,-1.3699573026823957e-06,0.0017968242848522098,-1.3623059532966828e-06,0.001740574617461954,1.0297645589534008,1.0313772076158236
1624632842.900554,2.417321133094373e-10,-1.2726615001552724e-09,5.81,4.87,2.489831558705191e-06,-2.316122299816925e-05,1.2804877758026123,-0.0126953125,0.0126953125,-1.3699573026823957e-06,0.0017968242848522098,-1.3623059532966828e-06,0.001740574617461954,1.0297645589534008,1.0313772076158236
1624632842.9605541,-3.790002966158382e-10,-1.2281998587689534e-09,5.81,4.87,2.489831558705191e-06,-2.316122299816925e-05,1.2804877758026123,-0.0126953125,0.0126953125,-1.3698225917643476e-06,0.0018376607015255161,-1.3634746752886568e-06,0.0017298726807320113,1.0297646585363378,1.0313870734862265
1624632842.9605541,-3.790002966158382e-10,-1.2281998587689534e-09,5.82,4.87,2.489831558705191e-06,-2.316122299816925e-05,1.2804877758026123,-0.0126953125,0.0126953125,-1.3698225917643476e-06,0.0018376607015255161,-1.3634746752886568e-06,0.0017298726807320113,1.0297646585363378,1.0313870734862265
1624632842.9605541,-3.790002966158382e-10,-1.2281998587689534e-09,5.82,4.87,2.489831558705191e-06,-2.316122299816925e-05,1.2804877758026123,-0.0126953125,0.0126953125,-1.3698225917643476e-06,0.0018376607015255161,-1.3634746752886568e-06,0.0017298726807320113,1.0297646585363378,1.0313870734862265
1624632842.9605541,-3.790002966158382e-10,-1.2281998587689534e-09,5.82,4.87,2.489831558705191e-06,-2.316122299816925e-05,1.2804877758026123,-0.0126953125,0.0126953125,-1.3698225917643476e-06,0.0018376607015255161,-1.3634746752886568e-06,0.0017298726807320113,1.0297646585363378,1.0313870734862265
1624632842.9605541,-3.790002966158382e-10,-1.2281998587689534e-09,5.82,4.87,2.489831558705191e-06,-2.316122299816925e-05,1.2804877758026123,-0.0126953125,0.0126953125,-1.3698225917643476e-06,0.0018376607015255161,-1.3634746752886568e-06,0.0017298726807320113,1.0297646585363378,1.0313870734862265
1624632843.020554,-8.535948052693192e-10,-1.1791096236170727e-09,5.82,4.87,2.489831558705191e-06,-2.316122299816925e-05,1.2804877758026123,-0.0126953125,0.0126953125,-1.369121698002151e-06,0.0017225074738529468,-1.364402493061372e-06,0.001663571492484849,1.0297605144427762,1.0313916482577192
1624632843.020554,-8.535948052693192e-10,-1.1791096236170727e-09,5.82,4.87,2.489831558705191e-06,-2.316122299816925e-05,1.3414634466171265,-0.0048828125,0.0087890625,-1.369121698002151e-06,0.0017225074738529468,-1.364402493061372e-06,0.001663571492484849,1.0297605144427762,1.0313916482577192
1624632843.020554,-8.535948052693192e-10,-1.1791096236170727e-09,5.82,4.87,2.489831558705191e-06,-2.316122299816925e-05,1.3414634466171265,-0.0048828125,0.0087890625,-1.369121698002151e-06,0.0017225074738529468,-1.364402493061372e-06,0.001663571492484849,1.0297605144427762,1.0313916482577192
1624632843.020554,-8.535948052693192e-10,-1.1791096236170727e-09,5.82,4.87,2.489831558705191e-06,-2.316122299816925e-05,1.3414634466171265,-0.0048828125,0.0087890625,-1.369121698002151e-06,0.0017225074738529468,-1.364402493061372e-06,0.001663571492484849,1.0297605144427762,1.0313916482577192
1624632843.020554,-8.535948052693192e-10,-1.1791096236170727e-09,5.82,4.87,2.489831558705191e-06,-2.316122299816925e-05,1.3414634466171265,-0.0048828125,0.0087890625,-1.369121698002151e-06,0.0017225074738529468,-1.364402493061372e-06,0.001663571492484849,1.0297605144427762,1.0313916482577192
1624632843.080554,-1.3137705440016815e-09,-1.1266233777965244e-09,5.82,4.87,2.489831558705191e-06,-2.316122299816925e-05,1.3414634466171265,-0.0048828125,0.0087890625,-1.3698165071863155e-06,0.0018546694437111212,-1.365332165076819e-06,0.0016789853053259909,1.0297649214478632,1.0313968195660776
1624632843.080554,-1.3137705440016815e-09,-1.1266233777965244e-09,5.82,4.88,2.489831558705191e-06,-2.316122299816925e-05,1.3414634466171265,-0.0048828125,0.0087890625,-1.3698165071863155e-06,0.0018546694437111212,-1.365332165076819e-06,0.0016789853053259909,1.0297649214478632,1.0313968195660776
1624632843.080554,-1.3137705440016815e-09,-1.1266233777965244e-09,5.82,4.88,2.489831558705191e-06,-2.316122299816925e-05,1.3414634466171265,-0.0048828125,0.0087890625,-1.3698165071863155e-06,0.0018546694437111212,-1.365332165076819e-06,0.0016789853053259909,1.0297649214478632,1.0313968195660776
1624632843.080554,-1.3137705440016815e-09,-1.1266233777965244e-09,5.82,4.88,2.489831558705191e-06,-2.316122299816925e-05,1.3414634466171265,-0.0048828125,0.0087890625,-1.3698165071863155e-06,0.0018546694437111212,-1.365332165076819e-06,0.0016789853053259909,1.0297649214478632,1.0313968195660776
1624632843.080554,-1.3137705440016815e-09,-1.1266233777965244e-09,5.82,4.88,2.489831558705191e-06,-2.316122299816925e-05,1.3414634466171265,-0.0048828125,0.0087890625,-1.3698165071863155e-06,0.0018546694437111212,-1.365332165076819e-06,0.0016789853053259909,1.0297649214478632,1.0313968195660776
1624632843.080554,-1.6444171659561621e-09,-1.0889237881681109e-09,5.82,4.88,2.489831558705191e-06,-2.316122299816925e-05,1.3414634466171265,-0.0048828125,0.0087890625,-1.3698165071863155e-06,0.0018546694437111212,-1.3659633688238626e-06,0.0016899904183698348,1.0297649214478632,1.0313118350688404
1624632843.080554,-1.6444171659561621e-09,-1.0889237881681109e-09,5.82,4.88,2.489831558705191e-06,-2.316122299816925e-05,1.3414634466171265,-0.0048828125,0.0087890625,-1.3698165071863155e-06,0.0018546694437111212,-1.3659633688238626e-06,0.0016899904183698348,1.0297649214478632,1.0313118350688404
1624632843.080554,-1.6444171659561621e-09,-1.0889237881681109e-09,5.82,4.88,2.489831558705191e-06,-2.316122299816925e-05,1.3414634466171265,-0.009765625,0.01123046875,-1.3698165071863155e-06,0.0018546694437111212,-1.3659633688238626e-06,0.0016899904183698348,1.0297649214478632,1.0313118350688404
1624632843.080554,-1.6444171659561621e-09,-1.0889237881681109e-09,5.82,4.88,2.489831558705191e-06,-2.316122299816925e-05,1.3414634466171265,-0.009765625,0.01123046875,-1.3698165071863155e-06,0.0018546694437111212,-1.3659633688238626e-06,0.0016899904183698348,1.0297649214478632,1.0313118350688404
1624632843.080554,-1.6444171659561621e-09,-1.0889237881681109e-09,5.82,4.88,2.489831558705191e-06,-2.316122299816925e-05,1.3414634466171265,-0.009765625,0.01123046875,-1.339028811620331e-06,0.0018694460145486937,-1.3659633688238626e-06,0.0016899904183698348,1.0298065432002368,1.0313118350688404
1624632843.162554,5.463073330593825e-10,-1.0431149314119106e-09,5.82,4.88,2.489831558705191e-06,-2.316122299816925e-05,1.3414634466171265,-0.009765625,0.01123046875,-1.339028811620331e-06,0.0018694460145486937,-1.3619196442996222e-06,0.0017352928839656772,1.0298065432002368,1.0313911211703266
1624632843.162554,5.463073330593825e-10,-1.0431149314119106e-09,5.82,4.9,2.489831558705191e-06,-2.316122299816925e-05,1.3414634466171265,-0.009765625,0.01123046875,-1.339028811620331e-06,0.0018694460145486937,-1.3619196442996222e-06,0.0017352928839656772,1.0298065432002368,1.0313911211703266
1624632843.162554,5.463073330593825e-10,-1.0431149314119106e-09,5.82,4.9,2.489831558705191e-06,-2.316122299816925e-05,1.3414634466171265,-0.009765625,0.01123046875,-1.339028811620331e-06,0.0018694460145486937,-1.3619196442996222e-06,0.0017352928839656772,1.0298065432002368,1.0313911211703266
1624632843.162554,5.463073330593825e-10,-1.0431149314119106e-09,5.82,4.9,2.489831558705191e-06,-2.316122299816925e-05,1.3414634466171265,-0.009765625,0.01123046875,-1.339028811620331e-06,0.0018694460145486937,-1.3619196442996222e-06,0.0017352928839656772,1.0298065432002368,1.0313911211703266
1624632843.162554,5.463073330593825e-10,-1.0431149314119106e-09,5.82,4.9,2.489831558705191e-06,-2.316122299816925e-05,1.3414634466171265,-0.009765625,0.01123046875,-1.3698458781129484e-06,0.0017933024290164746,-1.3619196442996222e-06,0.0017352928839656772,1.029763391686158,1.0313911211703266
1624632843.2005541,-9.022115771896131e-11,-9.965976784192006e-10,5.82,4.9,2.489831558705191e-06,-2.316122299816925e-05,1.3414634466171265,-0.009765625,0.01123046875,-1.3698458781129484e-06,0.0017933024290164746,-1.363111752114658e-06,0.0017022847297364701,1.029763391686158,1.0313637310895707
1624632843.2005541,-9.022115771896131e-11,-9.965976784192006e-10,5.82,4.9,2.489831558705191e-06,-2.316122299816925e-05,1.3414634466171265,-0.009765625,0.01123046875,-1.3698458781129484e-06,0.0017933024290164746,-1.363111752114658e-06,0.0017022847297364701,1.029763391686158,1.0313637310895707
1624632843.2005541,-9.022115771896131e-11,-9.965976784192006e-10,5.82,4.9,2.489831558705191e-06,-2.316122299816925e-05,1.3414634466171265,-0.0146484375,0.0078125,-1.3698458781129484e-06,0.0017933024290164746,-1.363111752114658e-06,0.0017022847297364701,1.029763391686158,1.0313637310895707
1624632843.2005541,-9.022115771896131e-11,-9.965976784192006e-10,5.82,4.9,2.489831558705191e-06,-2.316122299816925e-05,1.3414634466171265,-0.0146484375,0.0078125,-1.3698458781129484e-06,0.0017933024290164746,-1.363111752114658e-06,0.0017022847297364701,1.029763391686158,1.0313637310895707
1624632843.2005541,-9.022115771896131e-11,-9.965976784192006e-10,5.82,4.9,2.489831558705191e-06,-2.316122299816925e-05,1.3414634466171265,-0.0146484375,0.0078125,-1.3609576934637234e-06,0.0019221855194572314,-1.363111752114658e-06,0.0017022847297364701,1.029777951176244,1.0313637310895707
1624632843.266554,9.004072449246943e-11,-9.463970076128609e-10,5.82,4.9,2.489831558705191e-06,-2.316122299816925e-05,1.3414634466171265,-0.0146484375,0.0078125,-1.3609576934637234e-06,0.0019221855194572314,-1.3627741938407056e-06,0.0017478587670661098,1.029777951176244,1.0313961088463044
1624632843.266554,9.004072449246943e-11,-9.463970076128609e-10,5.82,4.89,2.489831558705191e-06,-2.316122299816925e-05,1.3414634466171265,-0.0146484375,0.0078125,-1.3609576934637234e-06,0.0019221855194572314,-1.3627741938407056e-06,0.0017478587670661098,1.029777951176244,1.0313961088463044
1624632843.266554,9.004072449246943e-11,-9.463970076128609e-10,5.82,4.89,2.5520773760945303e-06,-2.374025461904239e-05,1.3414634466171265,-0.0146484375,0.0078125,-1.3609576934637234e-06,0.0019221855194572314,-1.3627741938407056e-06,0.0017478587670661098,1.029777951176244,1.0313961088463044
1624632843.266554,9.004072449246943e-11,-9.463970076128609e-10,5.82,4.89,2.5520773760945303e-06,-2.374025461904239e-05,1.3414634466171265,-0.0146484375,0.0078125,-1.3609576934637234e-06,0.0019221855194572314,-1.3627741938407056e-06,0.0017478587670661098,1.029777951176244,1.0313961088463044
1624632843.266554,9.004072449246943e-11,-9.463970076128609e-10,5.82,4.89,2.5520773760945303e-06,-2.374025461904239e-05,1.3414634466171265,-0.0146484375,0.0078125,-1.3690224455983531e-06,0.0018129402708543397,-1.3627741938407056e-06,0.0017478587670661098,1.0297639280888662,1.0313961088463044
1624632843.320554,-4.371203300035058e-10,-8.953624614486483e-10,5.82,4.89,2.5520773760945303e-06,-2.374025461904239e-05,1.3414634466171265,-0.0146484375,0.0078125,-1.3690224455983531e-06,0.0018129402708543397,-1.3637745259492624e-06,0.0017051764693290644,1.0297639280888662,1.0313928016552683
1624632843.320554,-4.371203300035058e-10,-8.953624614486483e-10,5.82,4.89,2.5520773760945303e-06,-2.374025461904239e-05,1.3414634466171265,-0.0146484375,0.0078125,-1.3690224455983531e-06,0.0018129402708543397,-1.3637745259492624e-06,0.0017051764693290644,1.0297639280888662,1.0313928016552683
1624632843.320554,-4.371203300035058e-10,-8.953624614486483e-10,5.82,4.89,2.5520773760945303e-06,-2.374025461904239e-05,1.3414634466171265,-0.0146484375,0.0078125,-1.3690224455983531e-06,0.0018129402708543397,-1.3637745259492624e-06,0.0017051764693290644,1.0297639280888662,1.0313928016552683
1624632843.320554,-4.371203300035058e-10,-8.953624614486483e-10,5.82,4.89,2.489831558705191e-06,-2.316122299816925e-05,1.3414634466171265,-0.0146484375,0.0078125,-1.3690224455983531e-06,0.0018129402708543397,-1.3637745259492624e-06,0.0017051764693290644,1.0297639280888662,1.0313928016552683
1624632843.320554,-4.371203300035058e-10,-8.953624614486483e-10,5.82,4.89,2.489831558705191e-06,-2.316122299816925e-05,1.402438998222351,-0.0107421875,0.01318359375,-1.3683811637601465e-06,0.0016973958728075842,-1.3637745259492624e-06,0.0017051764693290644,1.0297595107944133,1.0313928016552683
1624632843.380554,-8.297953663270868e-10,-8.434693028023712e-10,5.82,4.89,2.489831558705191e-06,-2.316122299816925e-05,1.402438998222351,-0.0107421875,0.01318359375,-1.3683811637601465e-06,0.0016973958728075842,-1.3637745259492624e-06,0.0017051764693290644,1.0297595107944133,1.0313928016552683
1624632843.380554,-8.297953663270868e-10,-8.434693028023712e-10,5.81,4.88,2.489831558705191e-06,-2.316122299816925e-05,1.402438998222351,-0.0107421875,0.01318359375,-1.3683811637601465e-06,0.0016973958728075842,-1.3645502754438234e-06,0.0016221554476343635,1.0297595107944133,1.0313929917814333
1624632843.380554,-8.297953663270868e-10,-8.434693028023712e-10,5.81,4.88,2.489831558705191e-06,-2.316122299816925e-05,1.402438998222351,-0.0107421875,0.01318359375,-1.3683811637601465e-06,0.0016973958728075842,-1.3645502754438234e-06,0.0016221554476343635,1.0297595107944133,1.0313929917814333
1624632843.380554,-8.297953663270868e-10,-8.434693028023712e-10,5.81,4.88,2.489831558705191e-06,-2.316122299816925e-05,1.402438998222351,-0.0107421875,0.01318359375,-1.3683811637601465e-06,0.0016973958728075842,-1.3645502754438234e-06,0.0016221554476343635,1.0297595107944133,1.0313929917814333
1624632843.380554,-1.1120022424456225e-09,-8.062161625082334e-10,5.81,4.88,2.489831558705191e-06,-2.316122299816925e-05,1.402438998222351,-0.0107421875,0.01318359375,-1.368380610009858e-06,0.0018985960230878153,-1.3650889506781473e-06,0.001671631667163502,1.029765788977633,1.0313105099079038
1624632843.380554,-1.1120022424456225e-09,-8.062161625082334e-10,5.81,4.88,2.489831558705191e-06,-2.316122299816925e-05,1.402438998222351,-0.0107421875,0.01318359375,-1.368380610009858e-06,0.0018985960230878153,-1.3650889506781473e-06,0.001671631667163502,1.029765788977633,1.0313105099079038
1624632843.380554,-1.1120022424456225e-09,-8.062161625082334e-10,5.81,4.88,2.489831558705191e-06,-2.316122299816925e-05,1.3414634466171265,-0.01611328125,0.0029296875,-1.368380610009858e-06,0.0018985960230878153,-1.3650889506781473e-06,0.001671631667163502,1.029765788977633,1.0313105099079038
1624632843.380554,-1.1120022424456225e-09,-8.062161625082334e-10,5.81,4.88,2.489831558705191e-06,-2.316122299816925e-05,1.3414634466171265,-0.01611328125,0.0029296875,-1.368380610009858e-06,0.0018985960230878153,-1.3650889506781473e-06,0.001671631667163502,1.029765788977633,1.0313105099079038
1624632843.380554,-1.1120022424456225e-09,-8.062161625082334e-10,5.81,4.88,2.489831558705191e-06,-2.316122299816925e-05,1.3414634466171265,-0.01611328125,0.0029296875,-1.368380610009858e-06,0.0018985960230878153,-1.3650889506781473e-06,0.001671631667163502,1.029765788977633,1.0313105099079038
1624632843.454554,2.0767933957313392e-10,-7.63876091851128e-10,5.81,4.88,2.489831558705191e-06,-2.316122299816925e-05,1.3414634466171265,-0.01611328125,0.0029296875,-1.3486400671601492e-06,0.0017155105358710985,-1.3650889506781473e-06,0.001671631667163502,1.0297854427369793,1.0313105099079038
1624632843.454554,2.0767933957313392e-10,-7.63876091851128e-10,5.81,4.88,2.489831558705191e-06,-2.316122299816925e-05,1.3414634466171265,-0.01611328125,0.0029296875,-1.3486400671601492e-06,0.0017155105358710985,-1.3626566744690503e-06,0.0016530367822181016,1.0297854427369793,1.0313634421552207
1624632843.454554,2.0767933957313392e-10,-7.63876091851128e-10,5.81,4.87,2.489831558705191e-06,-2.316122299816925e-05,1.3414634466171265,-0.01611328125,0.0029296875,-1.3486400671601492e-06,0.0017155105358710985,-1.3626566744690503e-06,0.0016530367822181016,1.0297854427369793,1.0313634421552207
1624632843.454554,2.0767933957313392e-10,-7.63876091851128e-10,5.81,4.87,2.489831558705191e-06,-2.316122299816925e-05,1.3414634466171265,-0.01611328125,0.0029296875,-1.3486400671601492e-06,0.0017155105358710985,-1.3626566744690503e-06,0.0016530367822181016,1.0297854427369793,1.0313634421552207
1624632843.454554,2.0767933957313392e-10,-7.63876091851128e-10,5.81,4.87,2.489831558705191e-06,-2.316122299816925e-05,1.3414634466171265,-0.01611328125,0.0029296875,-1.3486400671601492e-06,0.0017155105358710985,-1.3626566744690503e-06,0.0016530367822181016,1.0297854427369793,1.0313634421552207
1624632843.500554,-2.4881472192216997e-10,-7.210086673875324e-10,5.81,4.87,2.489831558705191e-06,-2.316122299816925e-05,1.3414634466171265,-0.01611328125,0.0029296875,-1.3683203252126097e-06,0.0016323059481354147,-1.3635161480679228e-06,0.00159115133555968,1.0297572200805856,1.0313447254218437
1624632843.500554,-2.4881472192216997e-10,-7.210086673875324e-10,5.81,4.87,2.489831558705191e-06,-2.316122299816925e-05,1.3414634466171265,-0.01611328125,0.0029296875,-1.3683203252126097e-06,0.0016323059481354147,-1.3635161480679228e-06,0.00159115133555968,1.0297572200805856,1.0313447254218437
1624632843.500554,-2.4881472192216997e-10,-7.210086673875324e-10,5.81,4.87,2.489831558705191e-06,-2.316122299816925e-05,1.3414634466171265,-0.00390625,0.01611328125,-1.3683203252126097e-06,0.0016323059481354147,-1.3635161480679228e-06,0.00159115133555968,1.0297572200805856,1.0313447254218437
1624632843.500554,-2.4881472192216997e-10,-7.210086673875324e-10,5.81,4.87,2.489831558705191e-06,-2.316122299816925e-05,1.3414634466171265,-0.00390625,0.01611328125,-1.3683203252126097e-06,0.0016323059481354147,-1.3635161480679228e-06,0.00159115133555968,1.0297572200805856,1.0313447254218437
1624632843.500554,-2.4881472192216997e-10,-7.210086673875324e-10,5.81,4.87,2.489831558705191e-06,-2.316122299816925e-05,1.3414634466171265,-0.00390625,0.01611328125,-1.3683203252126097e-06,0.0016323059481354147,-1.3635161480679228e-06,0.00159115133555968,1.0297572200805856,1.0313447254218437
1624632843.560554,-6.215019026358143e-10,-6.767605117295127e-10,5.81,4.87,2.489831558705191e-06,-2.316122299816925e-05,1.3414634466171265,-0.00390625,0.01611328125,-1.3680221558501234e-06,0.0018483342871496538,-1.3642406108729229e-06,0.001648907300423044,1.0297620005996315,1.031352538284047
1624632843.560554,-6.215019026358143e-10,-6.767605117295127e-10,5.81,4.86,2.489831558705191e-06,-2.316122299816925e-05,1.3414634466171265,-0.00390625,0.01611328125,-1.3680221558501234e-06,0.0018483342871496538,-1.3642406108729229e-06,0.001648907300423044,1.0297620005996315,1.031352538284047
1624632843.560554,-6.215019026358143e-10,-6.767605117295127e-10,5.81,4.86,2.489831558705191e-06,-2.316122299816925e-05,1.3414634466171265,-0.00390625,0.01611328125,-1.3680221558501234e-06,0.0018483342871496538,-1.3642406108729229e-06,0.001648907300423044,1.0297620005996315,1.031352538284047
1624632843.560554,-6.215019026358143e-10,-6.767605117295127e-10,5.81,4.86,2.489831558705191e-06,-2.316122299816925e-05,1.3414634466171265,-0.00390625,0.01611328125,-1.3680221558501234e-06,0.0018483342871496538,-1.3642406108729229e-06,0.001648907300423044,1.0297620005996315,1.031352538284047
1624632843.560554,-6.215019026358143e-10,-6.767605117295127e-10,5.81,4.86,2.489831558705191e-06,-2.316122299816925e-05,1.3414634466171265,-0.00390625,0.01611328125,-1.3680221558501234e-06,0.0018483342871496538,-1.3642406108729229e-06,0.001648907300423044,1.0297620005996315,1.031352538284047
1624632843.620554,-8.97535937692525e-10,-6.320677193455098e-10,5.81,4.86,2.489831558705191e-06,-2.316122299816925e-05,1.3414634466171265,-0.00390625,0.01611328125,-1.3675330112263732e-06,0.0017324261927145704,-1.3648039004180548e-06,0.0016145958316431301,1.0297596103807438,1.0313565359928334
1624632843.620554,-8.97535937692525e-10,-6.320677193455098e-10,5.81,4.86,2.489831558705191e-06,-2.316122299816925e-05,1.3414634466171265,-0.00390625,0.01611328125,-1.3675330112263732e-06,0.0017324261927145704,-1.3648039004180548e-06,0.0016145958316431301,1.0297596103807438,1.0313565359928334
1624632843.620554,-8.97535937692525e-10,-6.320677193455098e-10,5.81,4.86,2.489831558705191e-06,-2.316122299816925e-05,1.3414634466171265,-0.00390625,0.01611328125,-1.3675330112263732e-06,0.0017324261927145704,-1.3648039004180548e-06,0.0016145958316431301,1.0297596103807438,1.0313565359928334
1624632843.620554,-8.97535937692525e-10,-6.320677193455098e-10,5.81,4.86,2.489831558705191e-06,-2.316122299816925e-05,1.3414634466171265,-0.01611328125,0.0048828125,-1.3675330112263732e-06,0.0017324261927145704,-1.3648039004180548e-06,0.0016145958316431301,1.0297596103807438,1.0313565359928334
1624632843.620554,-8.97535937692525e-10,-6.320677193455098e-10,5.81,4.86,2.489831558705191e-06,-2.316122299816925e-05,1.3414634466171265,-0.01611328125,0.0048828125,-1.3675330112263732e-06,0.0017324261927145704,-1.3648039004180548e-06,0.0016145958316431301,1.0297596103807438,1.0313565359928334
1624632843.680554,-1.1958098467983168e-09,-5.875343231203539e-10,5.81,4.86,2.489831558705191e-06,-2.316122299816925e-05,1.3414634466171265,-0.01611328125,0.0048828125,-1.3683216251241467e-06,0.0018061781665851646,-1.3654268658545642e-06,0.001629974044397722,1.0297625681844167,1.0313607523261972
1624632843.680554,-1.1958098467983168e-09,-5.875343231203539e-10,5.81,4.89,2.489831558705191e-06,-2.316122299816925e-05,1.3414634466171265,-0.01611328125,0.0048828125,-1.3683216251241467e-06,0.0018061781665851646,-1.3654268658545642e-06,0.001629974044397722,1.0297625681844167,1.0313607523261972
1624632843.680554,-1.1958098467983168e-09,-5.875343231203539e-10,5.81,4.89,2.489831558705191e-06,-2.316122299816925e-05,1.3414634466171265,-0.01611328125,0.0048828125,-1.3683216251241467e-06,0.0018061781665851646,-1.3654268658545642e-06,0.001629974044397722,1.0297625681844167,1.0313607523261972
1624632843.680554,-1.1958098467983168e-09,-5.875343231203539e-10,5.81,4.89,2.489831558705191e-06,-2.316122299816925e-05,1.3414634466171265,-0.01611328125,0.0048828125,-1.3683216251241467e-06,0.0018061781665851646,-1.3654268658545642e-06,0.001629974044397722,1.0297625681844167,1.0313607523261972
1624632843.680554,-1.1958098467983168e-09,-5.875343231203539e-10,5.81,4.89,2.489831558705191e-06,-2.316122299816925e-05,1.3414634466171265,-0.01611328125,0.0048828125,-1.3683216251241467e-06,0.0018061781665851646,-1.3654268658545642e-06,0.001629974044397722,1.0297625681844167,1.0313607523261972
1624632843.680554,-1.4099128940916886e-09,-5.555803890822387e-10,5.81,4.89,2.489831558705191e-06,-2.316122299816925e-05,1.3414634466171265,-0.01611328125,0.0048828125,-1.3683216251241467e-06,0.0018061781665851646,-1.3658353922749818e-06,0.0016409709037551587,1.0297625681844167,1.0312775399532854
1624632843.680554,-1.4099128940916886e-09,-5.555803890822387e-10,5.81,4.89,2.489831558705191e-06,-2.316122299816925e-05,1.3414634466171265,-0.01611328125,0.0048828125,-1.3683216251241467e-06,0.0018061781665851646,-1.3658353922749818e-06,0.0016409709037551587,1.0297625681844167,1.0312775399532854
1624632843.680554,-1.4099128940916886e-09,-5.555803890822387e-10,5.81,4.89,2.489831558705191e-06,-2.316122299816925e-05,1.3414634466171265,-0.01611328125,0.0048828125,-1.3683216251241467e-06,0.0018061781665851646,-1.3658353922749818e-06,0.0016409709037551587,1.0297625681844167,1.0312775399532854
1624632843.680554,-1.4099128940916886e-09,-5.555803890822387e-10,5.81,4.89,2.489831558705191e-06,-2.316122299816925e-05,1.3414634466171265,-0.01708984375,0.0009765625,-1.3683216251241467e-06,0.0018061781665851646,-1.3658353922749818e-06,0.0016409709037551587,1.0297625681844167,1.0312775399532854
1624632843.680554,-1.4099128940916886e-09,-5.555803890822387e-10,5.81,4.89,2.489831558705191e-06,-2.316122299816925e-05,1.3414634466171265,-0.01708984375,0.0009765625,-1.3683216251241467e-06,0.0018061781665851646,-1.3658353922749818e-06,0.0016409709037551587,1.0297625681844167,1.0312775399532854
1624632843.766554,1.3358520057328597e-09,-5.192130198533115e-10,5.81,4.89,2.489831558705191e-06,-2.316122299816925e-05,1.3414634466171265,-0.01708984375,0.0009765625,-1.3323060460594603e-06,0.001973208144700916,-1.3658353922749818e-06,0.0016409709037551587,1.0298181874796557,1.0312775399532854
1624632843.766554,1.3358520057328597e-09,-5.192130198533115e-10,5.81,4.91,2.489831558705191e-06,-2.316122299816925e-05,1.3414634466171265,-0.01708984375,0.0009765625,-1.3323060460594603e-06,0.001973208144700916,-1.3607179113370558e-06,0.0017577175054267658,1.0298181874796557,1.0313678845645922
1624632843.766554,1.3358520057328597e-09,-5.192130198533115e-10,5.81,4.91,2.489831558705191e-06,-2.316122299816925e-05,1.3414634466171265,-0.01708984375,0.0009765625,-1.3323060460594603e-06,0.001973208144700916,-1.3607179113370558e-06,0.0017577175054267658,1.0298181874796557,1.0313678845645922
1624632843.766554,1.3358520057328597e-09,-5.192130198533115e-10,5.81,4.91,2.489831558705191e-06,-2.316122299816925e-05,1.3414634466171265,-0.01708984375,0.0009765625,-1.3323060460594603e-06,0.001973208144700916,-1.3607179113370558e-06,0.0017577175054267658,1.0298181874796557,1.0313678845645922
1624632843.766554,1.3358520057328597e-09,-5.192130198533115e-10,5.81,4.91,2.489831558705191e-06,-2.316122299816925e-05,1.3414634466171265,-0.01708984375,0.0009765625,-1.3323060460594603e-06,0.001973208144700916,-1.3607179113370558e-06,0.0017577175054267658,1.0298181874796557,1.0313678845645922
1624632843.800554,6.819937191557124e-10,-4.841854771221437e-10,5.81,4.91,2.489831558705191e-06,-2.316122299816925e-05,1.3414634466171265,-0.01708984375,0.0009765625,-1.3688456923774701e-06,0.0019008097765016042,-1.3619188303636655e-06,0.001755941984727185,1.029766937622325,1.0313373880732564
1624632843.800554,6.819937191557124e-10,-4.841854771221437e-10,5.81,4.91,2.489831558705191e-06,-2.316122299816925e-05,1.3414634466171265,-0.01708984375,0.0009765625,-1.3688456923774701e-06,0.0019008097765016042,-1.3619188303636655e-06,0.001755941984727185,1.029766937622325,1.0313373880732564
1624632843.800554,6.819937191557124e-10,-4.841854771221437e-10,5.81,4.91,2.489831558705191e-06,-2.316122299816925e-05,1.3414634466171265,-0.01708984375,0.0009765625,-1.3688456923774701e-06,0.0019008097765016042,-1.3619188303636655e-06,0.001755941984727185,1.029766937622325,1.0313373880732564
1624632843.800554,6.819937191557124e-10,-4.841854771221437e-10,5.81,4.91,2.489831558705191e-06,-2.316122299816925e-05,1.3414634466171265,-0.01708984375,0.0009765625,-1.3688456923774701e-06,0.0019008097765016042,-1.3619188303636655e-06,0.001755941984727185,1.029766937622325,1.0313373880732564
1624632843.800554,6.819937191557124e-10,-4.841854771221437e-10,5.81,4.91,2.489831558705191e-06,-2.316122299816925e-05,1.4634146690368652,-0.00634765625,0.01025390625,-1.3688456923774701e-06,0.0019008097765016042,-1.3619188303636655e-06,0.001755941984727185,1.029766937622325,1.0313373880732564
1624632843.870554,1.2869321324148123e-09,-4.4766561124247936e-10,5.81,4.91,2.489831558705191e-06,-2.316122299816925e-05,1.4634146690368652,-0.00634765625,0.01025390625,-1.3546622259423822e-06,0.0018479567364886279,-1.3607172874451667e-06,0.001748542606302688,1.0297840079145548,1.0313826273263218
1624632843.870554,1.2869321324148123e-09,-4.4766561124247936e-10,5.81,4.9,2.489831558705191e-06,-2.316122299816925e-05,1.4634146690368652,-0.00634765625,0.01025390625,-1.3546622259423822e-06,0.0018479567364886279,-1.3607172874451667e-06,0.001748542606302688,1.0297840079145548,1.0313826273263218
1624632843.870554,1.2869321324148123e-09,-4.4766561124247936e-10,5.81,4.9,2.489831558705191e-06,-2.316122299816925e-05,1.4634146690368652,-0.00634765625,0.01025390625,-1.3546622259423822e-06,0.0018479567364886279,-1.3607172874451667e-06,0.001748542606302688,1.0297840079145548,1.0313826273263218
1624632843.870554,1.2869321324148123e-09,-4.4766561124247936e-10,5.81,4.9,2.489831558705191e-06,-2.316122299816925e-05,1.4634146690368652,-0.00634765625,0.01025390625,-1.3546622259423822e-06,0.0018479567364886279,-1.3607172874451667e-06,0.001748542606302688,1.0297840079145548,1.0313826273263218
1624632843.870554,1.2869321324148123e-09,-4.4766561124247936e-10,5.81,4.9,2.489831558705191e-06,-2.316122299816925e-05,1.4634146690368652,-0.00634765625,0.01025390625,-1.3546622259423822e-06,0.0018479567364886279,-1.3607172874451667e-06,0.001748542606302688,1.0297840079145548,1.0313826273263218
1624632843.920554,6.170317995720447e-10,-4.120904013704714e-10,5.81,4.9,2.489831558705191e-06,-2.316122299816925e-05,1.4634146690368652,-0.00634765625,0.01025390625,-1.3686238703665468e-06,0.00175024653681864,-1.3619309820264403e-06,0.001684615611882254,1.029762023982022,1.0313711716198088
1624632843.920554,6.170317995720447e-10,-4.120904013704714e-10,5.81,4.9,2.489831558705191e-06,-2.316122299816925e-05,1.4634146690368652,-0.00634765625,0.01025390625,-1.3686238703665468e-06,0.00175024653681864,-1.3619309820264403e-06,0.001684615611882254,1.029762023982022,1.0313711716198088
1624632843.920554,6.170317995720447e-10,-4.120904013704714e-10,5.81,4.9,2.489831558705191e-06,-2.316122299816925e-05,1.402438998222351,-0.0185546875,0.00830078125,-1.3686238703665468e-06,0.00175024653681864,-1.3619309820264403e-06,0.001684615611882254,1.029762023982022,1.0313711716198088
1624632843.920554,6.170317995720447e-10,-4.120904013704714e-10,5.81,4.9,2.489831558705191e-06,-2.316122299816925e-05,1.402438998222351,-0.0185546875,0.00830078125,-1.3686238703665468e-06,0.00175024653681864,-1.3619309820264403e-06,0.001684615611882254,1.029762023982022,1.0313711716198088
1624632843.920554,6.170317995720447e-10,-4.120904013704714e-10,5.81,4.9,2.489831558705191e-06,-2.316122299816925e-05,1.402438998222351,-0.0185546875,0.00830078125,-1.3686238703665468e-06,0.00175024653681864,-1.3619309820264403e-06,0.001684615611882254,1.029762023982022,1.0313711716198088
1624632843.980554,-3.675792817929724e-11,-3.7680122792014956e-10,5.82,4.91,2.489831558705191e-06,-2.316122299816925e-05,1.402438998222351,-0.0185546875,0.00830078125,-1.3695350204227575e-06,0.0018344741008950928,-1.3631423237344405e-06,0.0016848925316934776,1.0297649362729004,1.031376650133328
1624632843.980554,-3.675792817929724e-11,-3.7680122792014956e-10,5.82,4.91,2.489831558705191e-06,-2.316122299816925e-05,1.402438998222351,-0.0185546875,0.00830078125,-1.3695350204227575e-06,0.0018344741008950928,-1.3631423237344405e-06,0.0016848925316934776,1.0297649362729004,1.031376650133328
1624632843.980554,-3.675792817929724e-11,-3.7680122792014956e-10,5.82,4.91,2.489831558705191e-06,-2.316122299816925e-05,1.402438998222351,-0.0185546875,0.00830078125,-1.3695350204227575e-06,0.0018344741008950928,-1.3631423237344405e-06,0.0016848925316934776,1.0297649362729004,1.031376650133328
1624632843.980554,-3.675792817929724e-11,-3.7680122792014956e-10,5.82,4.91,2.489831558705191e-06,-2.316122299816925e-05,1.402438998222351,-0.0185546875,0.00830078125,-1.3695350204227575e-06,0.0018344741008950928,-1.3631423237344405e-06,0.0016848925316934776,1.0297649362729004,1.031376650133328
1624632843.980554,-3.675792817929724e-11,-3.7680122792014956e-10,5.82,4.91,2.489831558705191e-06,-2.316122299816925e-05,1.402438998222351,-0.0185546875,0.00830078125,-1.3695350204227575e-06,0.0018344741008950928,-1.3631423237344405e-06,0.0016848925316934776,1.0297649362729004,1.031376650133328
1624632843.980554,-5.069312222766204e-10,-3.514364965409404e-10,5.82,4.91,2.489831558705191e-06,-2.316122299816925e-05,1.402438998222351,-0.0185546875,0.00830078125,-1.3695350204227575e-06,0.0018344741008950928,-1.36404009816358e-06,0.0016898122555604805,1.0297649362729004,1.0312914909463389
1624632843.980554,-5.069312222766204e-10,-3.514364965409404e-10,5.82,4.91,2.489831558705191e-06,-2.316122299816925e-05,1.402438998222351,-0.01171875,0.00439453125,-1.3695350204227575e-06,0.0018344741008950928,-1.36404009816358e-06,0.0016898122555604805,1.0297649362729004,1.0312914909463389
1624632843.980554,-5.069312222766204e-10,-3.514364965409404e-10,5.82,4.91,2.489831558705191e-06,-2.316122299816925e-05,1.402438998222351,-0.01171875,0.00439453125,-1.3695350204227575e-06,0.0018344741008950928,-1.36404009816358e-06,0.0016898122555604805,1.0297649362729004,1.0312914909463389
1624632843.980554,-5.069312222766204e-10,-3.514364965409404e-10,5.82,4.91,2.489831558705191e-06,-2.316122299816925e-05,1.402438998222351,-0.01171875,0.00439453125,-1.3695350204227575e-06,0.0018344741008950928,-1.36404009816358e-06,0.0016898122555604805,1.0297649362729004,1.0312914909463389
1624632843.980554,-5.069312222766204e-10,-3.514364965409404e-10,5.82,4.91,2.489831558705191e-06,-2.316122299816925e-05,1.402438998222351,-0.01171875,0.00439453125,-1.3695350204227575e-06,0.0018344741008950928,-1.36404009816358e-06,0.0016898122555604805,1.0297649362729004,1.0312914909463389
1624632844.058554,1.0805837031024095e-09,-3.2341426348796057e-10,5.82,4.91,2.489831558705191e-06,-2.316122299816925e-05,1.402438998222351,-0.01171875,0.00439453125,-1.3443045114789316e-06,0.0019616895795561916,-1.36404009816358e-06,0.0016898122555604805,1.0298030951814063,1.0312914909463389
1624632844.058554,1.0805837031024095e-09,-3.2341426348796057e-10,5.83,4.91,2.5520773760945303e-06,-2.374025461904239e-05,1.402438998222351,-0.01171875,0.00439453125,-1.3443045114789316e-06,0.0019616895795561916,-1.3610526296798104e-06,0.0017755595418293792,1.0298030951814063,1.0313633705708058
1624632844.058554,1.0805837031024095e-09,-3.2341426348796057e-10,5.83,4.91,2.5520773760945303e-06,-2.374025461904239e-05,1.402438998222351,-0.01171875,0.00439453125,-1.3443045114789316e-06,0.0019616895795561916,-1.3610526296798104e-06,0.0017755595418293792,1.0298030951814063,1.0313633705708058
1624632844.058554,1.0805837031024095e-09,-3.2341426348796057e-10,5.83,4.91,2.5520773760945303e-06,-2.374025461904239e-05,1.402438998222351,-0.01171875,0.00439453125,-1.3443045114789316e-06,0.0019616895795561916,-1.3610526296798104e-06,0.0017755595418293792,1.0298030951814063,1.0313633705708058
1624632844.058554,1.0805837031024095e-09,-3.2341426348796057e-10,5.83,4.91,2.5520773760945303e-06,-2.374025461904239e-05,1.402438998222351,-0.01171875,0.00439453125,-1.3443045114789316e-06,0.0019616895795561916,-1.3610526296798104e-06,0.0017755595418293792,1.0298030951814063,1.0313633705708058
1624632844.100554,3.9526626116506446e-10,-2.9590634280796333e-10,5.83,4.91,2.5520773760945303e-06,-2.374025461904239e-05,1.402438998222351,-0.01171875,0.00439453125,-1.369551854018147e-06,0.0018741235057796255,-1.3610526296798104e-06,0.0017755595418293792,1.029766520151383,1.0313633705708058
1624632844.100554,3.9526626116506446e-10,-2.9590634280796333e-10,5.83,4.91,2.5520773760945303e-06,-2.374025461904239e-05,1.402438998222351,-0.01171875,0.00439453125,-1.369551854018147e-06,0.0018741235057796255,-1.3610526296798104e-06,0.0017755595418293792,1.029766520151383,1.0313633705708058
1624632844.100554,3.9526626116506446e-10,-2.9590634280796333e-10,5.83,4.91,2.489831558705191e-06,-2.316122299816925e-05,1.402438998222351,-0.01123046875,0.01123046875,-1.369551854018147e-06,0.0018741235057796255,-1.3610526296798104e-06,0.0017755595418293792,1.029766520151383,1.0313633705708058
1624632844.100554,3.9526626116506446e-10,-2.9590634280796333e-10,5.83,4.91,2.489831558705191e-06,-2.316122299816925e-05,1.402438998222351,-0.01123046875,0.01123046875,-1.369551854018147e-06,0.0018741235057796255,-1.3610526296798104e-06,0.0017755595418293792,1.029766520151383,1.0313633705708058
1624632844.100554,3.9526626116506446e-10,-2.9590634280796333e-10,5.83,4.91,2.489831558705191e-06,-2.316122299816925e-05,1.402438998222351,-0.01123046875,0.01123046875,-1.369551854018147e-06,0.0018741235057796255,-1.3623126203179521e-06,0.0017582858449256905,1.029766520151383,1.0313464514258726
1624632844.162554,7.25968751968748e-11,-2.680415181852923e-10,5.83,4.91,2.489831558705191e-06,-2.316122299816925e-05,1.402438998222351,-0.01123046875,0.01123046875,-1.3661729958029018e-06,0.001937166993430947,-1.3623126203179521e-06,0.0017582858449256905,1.0297716932131757,1.0313464514258726
1624632844.162554,7.25968751968748e-11,-2.680415181852923e-10,5.83,4.91,2.489831558705191e-06,-2.316122299816925e-05,1.402438998222351,-0.01123046875,0.01123046875,-1.3661729958029018e-06,0.001937166993430947,-1.3623126203179521e-06,0.0017582858449256905,1.0297716932131757,1.0313464514258726
1624632844.162554,7.25968751968748e-11,-2.680415181852923e-10,5.83,4.91,2.489831558705191e-06,-2.316122299816925e-05,1.402438998222351,-0.01123046875,0.01123046875,-1.3661729958029018e-06,0.001937166993430947,-1.3623126203179521e-06,0.0017582858449256905,1.0297716932131757,1.0313464514258726
1624632844.162554,7.25968751968748e-11,-2.680415181852923e-10,5.83,4.91,2.489831558705191e-06,-2.316122299816925e-05,1.402438998222351,-0.01123046875,0.01123046875,-1.3661729958029018e-06,0.001937166993430947,-1.3623126203179521e-06,0.0017582858449256905,1.0297716932131757,1.0313464514258726
1624632844.162554,7.25968751968748e-11,-2.680415181852923e-10,5.83,4.91,2.489831558705191e-06,-2.316122299816925e-05,1.402438998222351,-0.01123046875,0.01123046875,-1.3661729958029018e-06,0.001937166993430947,-1.3629027906983732e-06,0.0017827839805505039,1.0297716932131757,1.031368755786916
1624632844.220554,-3.972113850809476e-10,-2.4057003072875797e-10,5.83,4.91,2.489831558705191e-06,-2.316122299816925e-05,1.402438998222351,-0.01123046875,0.01123046875,-1.3684548266382564e-06,0.0018193663247639668,-1.3629027906983732e-06,0.0017827839805505039,1.02976453668268,1.031368755786916
1624632844.220554,-3.972113850809476e-10,-2.4057003072875797e-10,5.83,4.91,2.489831558705191e-06,-2.316122299816925e-05,1.402438998222351,-0.01123046875,0.01123046875,-1.3684548266382564e-06,0.0018193663247639668,-1.3629027906983732e-06,0.0017827839805505039,1.02976453668268,1.031368755786916
1624632844.220554,-3.972113850809476e-10,-2.4057003072875797e-10,5.83,4.91,2.489831558705191e-06,-2.316122299816925e-05,1.402438998222351,-0.01123046875,0.01123046875,-1.3684548266382564e-06,0.0018193663247639668,-1.3629027906983732e-06,0.0017827839805505039,1.02976453668268,1.031368755786916
1624632844.220554,-3.972113850809476e-10,-2.4057003072875797e-10,5.83,4.91,2.489831558705191e-06,-2.316122299816925e-05,1.4634146690368652,-0.013671875,0.0029296875,-1.3684548266382564e-06,0.0018193663247639668,-1.36379408767248e-06,0.0017301746716479438,1.02976453668268,1.0313750783084548
1624632844.220554,-3.972113850809476e-10,-2.4057003072875797e-10,5.83,4.91,2.43054978454893e-06,-2.2609765437664464e-05,1.4634146690368652,-0.013671875,0.0029296875,-1.3684548266382564e-06,0.0018193663247639668,-1.36379408767248e-06,0.0017301746716479438,1.02976453668268,1.0313750783084548
1624632844.280554,-8.357053589878301e-10,-2.1365682242916659e-10,5.83,4.91,2.43054978454893e-06,-2.2609765437664464e-05,1.4634146690368652,-0.013671875,0.0029296875,-1.3689209391467438e-06,0.0018131706983201459,-1.36379408767248e-06,0.0017301746716479438,1.029764164607549,1.0313750783084548
1624632844.280554,-8.357053589878301e-10,-2.1365682242916659e-10,5.83,4.91,2.43054978454893e-06,-2.2609765437664464e-05,1.4634146690368652,-0.013671875,0.0029296875,-1.3689209391467438e-06,0.0018131706983201459,-1.36379408767248e-06,0.0017301746716479438,1.029764164607549,1.0313750783084548
1624632844.280554,-8.357053589878301e-10,-2.1365682242916659e-10,5.83,4.91,2.43054978454893e-06,-2.2609765437664464e-05,1.4634146690368652,-0.013671875,0.0029296875,-1.3689209391467438e-06,0.0018131706983201459,-1.36379408767248e-06,0.0017301746716479438,1.029764164607549,1.0313750783084548
1624632844.280554,-8.357053589878301e-10,-2.1365682242916659e-10,5.83,4.91,2.43054978454893e-06,-2.2609765437664464e-05,1.4634146690368652,-0.013671875,0.0029296875,-1.3689209391467438e-06,0.0018131706983201459,-1.3646547131874344e-06,0.001698087278080701,1.029764164607549,1.0313815426332216
1624632844.280554,-8.357053589878301e-10,-2.1365682242916659e-10,5.83,4.91,2.489831558705191e-06,-2.316122299816925e-05,1.4634146690368652,-0.013671875,0.0029296875,-1.3689209391467438e-06,0.0018131706983201459,-1.3646547131874344e-06,0.001698087278080701,1.029764164607549,1.0313815426332216
1624632844.280554,-1.1506621074081722e-09,-1.943382182048939e-10,5.83,4.91,2.489831558705191e-06,-2.316122299816925e-05,1.4634146690368652,-0.013671875,0.0029296875,-1.3689209391467438e-06,0.0018131706983201459,-1.3646547131874344e-06,0.001698087278080701,1.029764164607549,1.0313815426332216
1624632844.280554,-1.1506621074081722e-09,-1.943382182048939e-10,5.83,4.91,2.489831558705191e-06,-2.316122299816925e-05,1.4634146690368652,-0.013671875,0.0029296875,-1.3689209391467438e-06,0.0018131706983201459,-1.3646547131874344e-06,0.001698087278080701,1.029764164607549,1.0313815426332216
1624632844.280554,-1.1506621074081722e-09,-1.943382182048939e-10,5.83,4.91,2.489831558705191e-06,-2.316122299816925e-05,1.4634146690368652,-0.013671875,0.0029296875,-1.3689209391467438e-06,0.0018131706983201459,-1.3646547131874344e-06,0.001698087278080701,1.029764164607549,1.0313815426332216
1624632844.280554,-1.1506621074081722e-09,-1.943382182048939e-10,5.83,4.91,2.489831558705191e-06,-2.316122299816925e-05,1.4634146690368652,-0.013671875,0.0029296875,-1.3689209391467438e-06,0.0018131706983201459,-1.3652557682484313e-06,0.0016904782808581903,1.029764164607549,1.0312960253865917
1624632844.280554,-1.1506621074081722e-09,-1.943382182048939e-10,5.83,4.91,2.489831558705191e-06,-2.316122299816925e-05,1.402438998222351,-0.01611328125,0.00439453125,-1.3689209391467438e-06,0.0018131706983201459,-1.3652557682484313e-06,0.0016904782808581903,1.029764164607549,1.0312960253865917
1624632844.340554,-1.3868178016304723e-09,-1.739851566292003e-10,5.83,4.91,2.489831558705191e-06,-2.316122299816925e-05,1.402438998222351,-0.01611328125,0.00439453125,-1.368349619119431e-06,0.001698716963527779,-1.3652557682484313e-06,0.0016904782808581903,1.0297596623538094,1.0312960253865917
1624632844.340554,-1.3868178016304723e-09,-1.739851566292003e-10,5.82,4.9,2.489831558705191e-06,-2.316122299816925e-05,1.402438998222351,-0.01611328125,0.00439453125,-1.368349619119431e-06,0.001698716963527779,-1.3652557682484313e-06,0.0016904782808581903,1.0297596623538094,1.0312960253865917
1624632844.340554,-1.3868178016304723e-09,-1.739851566292003e-10,5.82,4.9,2.489831558705191e-06,-2.316122299816925e-05,1.402438998222351,-0.01611328125,0.00439453125,-1.368349619119431e-06,0.001698716963527779,-1.3652557682484313e-06,0.0016904782808581903,1.0297596623538094,1.0312960253865917
1624632844.340554,-1.3868178016304723e-09,-1.739851566292003e-10,5.82,4.9,2.489831558705191e-06,-2.316122299816925e-05,1.402438998222351,-0.01611328125,0.00439453125,-1.368349619119431e-06,0.001698716963527779,-1.365774287984148e-06,0.0016402228305008812,1.0297596623538094,1.0313080201842733
1624632844.340554,-1.3868178016304723e-09,-1.739851566292003e-10,5.82,4.9,2.489831558705191e-06,-2.316122299816925e-05,1.402438998222351,-0.01611328125,0.00439453125,-1.368349619119431e-06,0.001698716963527779,-1.365774287984148e-06,0.0016402228305008812,1.0297596623538094,1.0313080201842733
1624632844.400554,-1.6631690118173815e-09,-1.5312595273063673e-10,5.82,4.9,2.489831558705191e-06,-2.316122299816925e-05,1.402438998222351,-0.01611328125,0.00439453125,-1.369258403061462e-06,0.0018465648425898048,-1.365774287984148e-06,0.0016402228305008812,1.0297650514611632,1.0313080201842733
1624632844.400554,-1.6631690118173815e-09,-1.5312595273063673e-10,5.82,4.9,2.489831558705191e-06,-2.316122299816925e-05,1.402438998222351,-0.01611328125,0.00439453125,-1.369258403061462e-06,0.0018465648425898048,-1.365774287984148e-06,0.0016402228305008812,1.0297650514611632,1.0313080201842733
1624632844.400554,-1.6631690118173815e-09,-1.5312595273063673e-10,5.82,4.9,2.489831558705191e-06,-2.316122299816925e-05,1.3414634466171265,-0.01513671875,0.001953125,-1.369258403061462e-06,0.0018465648425898048,-1.365774287984148e-06,0.0016402228305008812,1.0297650514611632,1.0313080201842733
1624632844.400554,-1.6631690118173815e-09,-1.5312595273063673e-10,5.82,4.9,2.489831558705191e-06,-2.316122299816925e-05,1.3414634466171265,-0.01513671875,0.001953125,-1.369258403061462e-06,0.0018465648425898048,-1.3663831084456118e-06,0.0016627995970258816,1.0297650514611632,1.0313205113955093
1624632844.400554,-1.6631690118173815e-09,-1.5312595273063673e-10,5.82,4.9,2.489831558705191e-06,-2.316122299816925e-05,1.3414634466171265,-0.01513671875,0.001953125,-1.3692182558590587e-06,0.0019029653726115427,-1.3663831084456118e-06,0.0016627995970258816,1.0297667093861276,1.0313205113955093
1624632844.4605541,-1.8918039447019723e-09,-1.3230983947388515e-10,5.82,4.9,2.489831558705191e-06,-2.316122299816925e-05,1.3414634466171265,-0.01513671875,0.001953125,-1.3692182558590587e-06,0.0019029653726115427,-1.3663831084456118e-06,0.0016627995970258816,1.0297667093861276,1.0313205113955093
1624632844.4605541,-1.8918039447019723e-09,-1.3230983947388515e-10,5.82,4.9,2.489831558705191e-06,-2.316122299816925e-05,1.3414634466171265,-0.01513671875,0.001953125,-1.3692182558590587e-06,0.0019029653726115427,-1.3663831084456118e-06,0.0016627995970258816,1.0297667093861276,1.0313205113955093
1624632844.4605541,-1.8918039447019723e-09,-1.3230983947388515e-10,5.82,4.9,2.489831558705191e-06,-2.316122299816925e-05,1.3414634466171265,-0.01513671875,0.001953125,-1.3692182558590587e-06,0.0019029653726115427,-1.3669179815921178e-06,0.001715638592884705,1.0297667093861276,1.031334697538215
1624632844.4605541,-1.8918039447019723e-09,-1.3230983947388515e-10,5.82,4.9,2.489831558705191e-06,-2.316122299816925e-05,1.3414634466171265,-0.01513671875,0.001953125,-1.3692182558590587e-06,0.0019029653726115427,-1.3669179815921178e-06,0.001715638592884705,1.0297667093861276,1.031334697538215
1624632844.520554,-2.025483315741905e-09,-1.1195660301915778e-10,5.82,4.9,2.489831558705191e-06,-2.316122299816925e-05,1.3414634466171265,-0.01513671875,0.001953125,-1.3685993701530535e-06,0.0017837473221939694,-1.3669179815921178e-06,0.001715638592884705,1.0297630212640834,1.031334697538215
1624632844.520554,-2.025483315741905e-09,-1.1195660301915778e-10,5.82,4.9,2.489831558705191e-06,-2.316122299816925e-05,1.3414634466171265,-0.01513671875,0.001953125,-1.3685993701530535e-06,0.0017837473221939694,-1.3669179815921178e-06,0.001715638592884705,1.0297630212640834,1.031334697538215
1624632844.520554,-2.025483315741905e-09,-1.1195660301915778e-10,5.82,4.9,2.489831558705191e-06,-2.316122299816925e-05,1.402438998222351,-0.021484375,0.0107421875,-1.3685993701530535e-06,0.0017837473221939694,-1.3669179815921178e-06,0.001715638592884705,1.0297630212640834,1.031334697538215
1624632844.520554,-2.025483315741905e-09,-1.1195660301915778e-10,5.82,4.9,2.489831558705191e-06,-2.316122299816925e-05,1.402438998222351,-0.021484375,0.0107421875,-1.3685993701530535e-06,0.0017837473221939694,-1.3672862019090098e-06,0.0016747462092107067,1.0297630212640834,1.0313434476797063
1624632844.520554,-2.025483315741905e-09,-1.1195660301915778e-10,5.82,4.9,2.43054978454893e-06,-2.2609765437664464e-05,1.402438998222351,-0.021484375,0.0107421875,-1.3685993701530535e-06,0.0017837473221939694,-1.3672862019090098e-06,0.0016747462092107067,1.0297630212640834,1.0313434476797063
1624632844.520554,-2.025483315741905e-09,-1.1195660301915778e-10,5.82,4.9,2.43054978454893e-06,-2.2609765437664464e-05,1.402438998222351,-0.021484375,0.0107421875,-1.3685993701530535e-06,0.0017837473221939694,-1.3672862019090098e-06,0.0016747462092107067,1.0297630212640834,1.0313434476797063
1624632844.580554,-2.194692992995445e-09,-9.22120713793267e-11,5.83,4.9,2.43054978454893e-06,-2.2609765437664464e-05,1.402438998222351,-0.021484375,0.0107421875,-1.3693651614598132e-06,0.0017826621475906719,-1.3672862019090098e-06,0.0016747462092107067,1.0297629883711756,1.0313434476797063
1624632844.580554,-2.194692992995445e-09,-9.22120713793267e-11,5.83,4.9,2.43054978454893e-06,-2.2609765437664464e-05,1.402438998222351,-0.021484375,0.0107421875,-1.3693651614598132e-06,0.0017826621475906719,-1.3672862019090098e-06,0.0016747462092107067,1.0297629883711756,1.0313434476797063
1624632844.580554,-2.194692992995445e-09,-9.22120713793267e-11,5.83,4.9,2.43054978454893e-06,-2.2609765437664464e-05,1.402438998222351,-0.021484375,0.0107421875,-1.3693651614598132e-06,0.0017826621475906719,-1.3677306048364782e-06,0.0016534137698143857,1.0297629883711756,1.031349346191797
1624632844.580554,-2.194692992995445e-09,-9.22120713793267e-11,5.83,4.9,2.43054978454893e-06,-2.2609765437664464e-05,1.402438998222351,-0.021484375,0.0107421875,-1.3693651614598132e-06,0.0017826621475906719,-1.3677306048364782e-06,0.0016534137698143857,1.0297629883711756,1.031349346191797
1624632844.580554,-2.3159966641501263e-09,-7.806938730933126e-11,5.83,4.9,2.489831558705191e-06,-2.316122299816925e-05,1.402438998222351,-0.021484375,0.0107421875,-1.3693651614598132e-06,0.0017826621475906719,-1.3677306048364782e-06,0.0016534137698143857,1.0297629883711756,1.031349346191797
1624632844.580554,-2.3159966641501263e-09,-7.806938730933126e-11,5.83,4.9,2.489831558705191e-06,-2.316122299816925e-05,1.402438998222351,-0.021484375,0.0107421875,-1.3693651614598132e-06,0.0017826621475906719,-1.3677306048364782e-06,0.0016534137698143857,1.0297629883711756,1.031349346191797
1624632844.580554,-2.3159966641501263e-09,-7.806938730933126e-11,5.83,4.9,2.489831558705191e-06,-2.316122299816925e-05,1.402438998222351,-0.021484375,0.0107421875,-1.3693651614598132e-06,0.0017826621475906719,-1.3679620804082347e-06,0.0016499556589340452,1.0297629883711756,1.0312658706963993
1624632844.580554,-2.3159966641501263e-09,-7.806938730933126e-11,5.83,4.9,2.489831558705191e-06,-2.316122299816925e-05,1.402438998222351,-0.021484375,0.0107421875,-1.3693651614598132e-06,0.0017826621475906719,-1.3679620804082347e-06,0.0016499556589340452,1.0297629883711756,1.0312658706963993
1624632844.580554,-2.3159966641501263e-09,-7.806938730933126e-11,5.83,4.9,2.489831558705191e-06,-2.316122299816925e-05,1.402438998222351,-0.0048828125,0.0107421875,-1.3693651614598132e-06,0.0017826621475906719,-1.3679620804082347e-06,0.0016499556589340452,1.0297629883711756,1.0312658706963993
1624632844.674577,2.0116439584285e-09,9.503853419275792e-10,5.83,4.9,2.489831558705191e-06,-2.316122299816925e-05,1.402438998222351,-0.0048828125,0.0107421875,-1.3163708530217184e-06,0.0019145801186932526,-1.3679620804082347e-06,0.0016499556589340452,1.0298112916947426,1.0312658706963993
1624632844.674577,2.0116439584285e-09,9.503853419275792e-10,5.83,4.9,2.5520773760945303e-06,-2.374025461904239e-05,1.402438998222351,-0.0048828125,0.0107421875,-1.3163708530217184e-06,0.0019145801186932526,-1.3679620804082347e-06,0.0016499556589340452,1.0298112916947426,1.0312658706963993
1624632844.674577,2.0116439584285e-09,9.503853419275792e-10,5.83,4.9,2.5520773760945303e-06,-2.374025461904239e-05,1.402438998222351,-0.0048828125,0.0107421875,-1.3163708530217184e-06,0.0019145801186932526,-1.3599123992043603e-06,0.0017333061673538257,1.0298112916947426,1.0313656762173227
1624632844.674577,2.0116439584285e-09,9.503853419275792e-10,5.83,4.9,2.5520773760945303e-06,-2.374025461904239e-05,1.402438998222351,-0.0048828125,0.0107421875,-1.3163708530217184e-06,0.0019145801186932526,-1.3599123992043603e-06,0.0017333061673538257,1.0298112916947426,1.0313656762173227
1624632844.674577,2.0116439584285e-09,9.503853419275792e-10,5.83,4.9,2.5520773760945303e-06,-2.374025461904239e-05,1.402438998222351,-0.0048828125,0.0107421875,-1.3163708530217184e-06,0.0019145801186932526,-1.3599123992043603e-06,0.0017333061673538257,1.0298112916947426,1.0313656762173227
1624632844.7125769,3.371550416758936e-09,2.1659039766576598e-09,5.83,4.9,2.5520773760945303e-06,-2.374025461904239e-05,1.402438998222351,-0.0048828125,0.0107421875,-1.3432755935892872e-06,0.0018362385912972505,-1.3599123992043603e-06,0.0017333061673538257,1.0297651628875526,1.0313656762173227
1624632844.7125769,3.371550416758936e-09,2.1659039766576598e-09,5.83,4.9,2.489831558705191e-06,-2.316122299816925e-05,1.402438998222351,-0.0048828125,0.0107421875,-1.3432755935892872e-06,0.0018362385912972505,-1.3572396605499971e-06,0.0017129275964782443,1.0297651628875526,1.031339052333651
1624632844.7125769,3.371550416758936e-09,2.1659039766576598e-09,5.83,4.9,2.489831558705191e-06,-2.316122299816925e-05,1.402438998222351,-0.0048828125,0.0107421875,-1.3432755935892872e-06,0.0018362385912972505,-1.3572396605499971e-06,0.0017129275964782443,1.0297651628875526,1.031339052333651
1624632844.7125769,3.371550416758936e-09,2.1659039766576598e-09,5.83,4.9,2.489831558705191e-06,-2.316122299816925e-05,1.402438998222351,-0.00537109375,0.00390625,-1.3432755935892872e-06,0.0018362385912972505,-1.3572396605499971e-06,0.0017129275964782443,1.0297651628875526,1.031339052333651
1624632844.7125769,3.371550416758936e-09,2.1659039766576598e-09,5.83,4.9,2.489831558705191e-06,-2.316122299816925e-05,1.402438998222351,-0.00537109375,0.00390625,-1.3432755935892872e-06,0.0018362385912972505,-1.3572396605499971e-06,0.0017129275964782443,1.0297651628875526,1.031339052333651
1624632844.778577,0.00219452344062948,3.6562611883393035e-09,5.83,4.9,2.489831558705191e-06,-2.316122299816925e-05,1.402438998222351,-0.00537109375,0.00390625,0.02583652314896108,0.0019925725252123326,-1.3572396605499971e-06,0.0017129275964782443,1.029781042256457,1.031339052333651
1624632844.778577,0.00219452344062948,3.6562611883393035e-09,5.83,4.9,2.489831558705191e-06,-2.316122299816925e-05,1.402438998222351,-0.00537109375,0.00390625,0.02583652314896108,0.0019925725252123326,0.004191509128394629,0.0017827779849438577,1.029781042256457,1.0313732544049297
1624632844.778577,0.00219452344062948,3.6562611883393035e-09,5.83,4.9,2.489831558705191e-06,-2.316122299816925e-05,1.402438998222351,-0.00537109375,0.00390625,0.02583652314896108,0.0019925725252123326,0.004191509128394629,0.0017827779849438577,1.029781042256457,1.0313732544049297
1624632844.778577,0.00219452344062948,3.6562611883393035e-09,5.83,4.9,2.489831558705191e-06,-2.316122299816925e-05,1.402438998222351,-0.00537109375,0.00390625,0.02583652314896108,0.0019925725252123326,0.004191509128394629,0.0017827779849438577,1.029781042256457,1.0313732544049297
1624632844.778577,0.00219452344062948,3.6562611883393035e-09,5.83,4.9,2.489831558705191e-06,-2.316122299816925e-05,1.402438998222351,-0.00537109375,0.00390625,0.02583652314896108,0.0019925725252123326,0.004191509128394629,0.0017827779849438577,1.029781042256457,1.0313732544049297
1624632844.832577,0.005650127276607418,1.1144941988405023e-08,5.83,4.9,2.489831558705191e-06,-2.316122299816925e-05,1.402438998222351,-0.00537109375,0.00390625,0.044817328568740614,0.0018791813052162502,0.004191509128394629,0.0017827779849438577,1.0297668058576024,1.0313732544049297
1624632844.832577,0.005650127276607418,1.1144941988405023e-08,5.83,4.9,2.489831558705191e-06,-2.316122299816925e-05,1.402438998222351,-0.00537109375,0.00390625,0.044817328568740614,0.0018791813052162502,0.004191509128394629,0.0017827779849438577,1.0297668058576024,1.0313732544049297
1624632844.832577,0.005650127276607418,1.1144941988405023e-08,5.83,4.9,2.489831558705191e-06,-2.316122299816925e-05,1.402438998222351,-0.00537109375,0.00390625,0.044817328568740614,0.0018791813052162502,0.004191509128394629,0.0017827779849438577,1.0297668058576024,1.0313732544049297
1624632844.832577,0.005650127276607418,1.1144941988405023e-08,5.83,4.9,2.489831558705191e-06,-2.316122299816925e-05,1.402438998222351,-0.00537109375,0.00390625,0.044817328568740614,0.0018791813052162502,0.004191509128394629,0.0017827779849438577,1.0297668058576024,1.0313732544049297
1624632844.832577,0.005650127276607418,1.1144941988405023e-08,5.83,4.9,0.0322747640311718,-0.18654289841651917,1.402438998222351,-0.00537109375,0.00390625,0.044817328568740614,0.0018791813052162502,0.01091523611576332,0.0017493026296976806,1.0297668058576024,1.0313713394809914
1624632844.892577,0.010248923005408462,1.3446709942202943e-07,5.83,4.9,0.0322747640311718,-0.18654289841651917,1.402438998222351,-0.00537109375,0.00390625,0.06447912117111711,0.001554060315132474,0.01091523611576332,0.0017493026296976806,1.0265978082391753,1.0313713394809914
1624632844.892577,0.010248923005408462,1.3446709942202943e-07,5.83,4.89,0.0322747640311718,-0.18654289841651917,2.7439024448394775,-0.01171875,-0.00341796875,0.06447912117111711,0.001554060315132474,0.01091523611576332,0.0017493026296976806,1.0265978082391753,1.0313713394809914
1624632844.892577,0.010248923005408462,1.3446709942202943e-07,5.83,4.89,0.0322747640311718,-0.18654289841651917,2.7439024448394775,-0.01171875,-0.00341796875,0.06447912117111711,0.001554060315132474,0.01091523611576332,0.0017493026296976806,1.0265978082391753,1.0313713394809914
1624632844.892577,0.010248923005408462,1.3446709942202943e-07,5.83,4.89,0.0322747640311718,-0.18654289841651917,2.7439024448394775,-0.01171875,-0.00341796875,0.06447912117111711,0.001554060315132474,0.01091523611576332,0.0017493026296976806,1.0265978082391753,1.0313713394809914
1624632844.892577,0.010248923005408462,1.3446709942202943e-07,5.83,4.89,0.0322747640311718,-0.18654289841651917,2.7439024448394775,-0.01171875,-0.00341796875,0.06447912117111711,0.001554060315132474,0.020052763166756277,0.0014513241451358297,1.0265978082391753,1.0311770403617682
1624632844.892577,0.013542966120479916,2.2246647961129933e-07,5.83,4.89,0.09094110131263733,-0.06647244095802307,2.7439024448394775,-0.01171875,-0.00341796875,0.06447912117278352,0.0021523168266069856,0.020052763166756277,0.0014513241451358297,1.0266166078136232,1.0311770403617682
1624632844.892577,0.013542966120479916,2.2246647961129933e-07,5.83,4.89,0.09094110131263733,-0.06647244095802307,0.12195122241973877,-0.05224609375,-0.11181640625,0.06447912117278352,0.0021523168266069856,0.020052763166756277,0.0014513241451358297,1.0266166078136232,1.0311770403617682
1624632844.892577,0.013542966120479916,2.2246647961129933e-07,5.83,4.89,0.09094110131263733,-0.06647244095802307,0.12195122241973877,-0.05224609375,-0.11181640625,0.06447912117278352,0.0021523168266069856,0.020052763166756277,0.0014513241451358297,1.0266166078136232,1.0311770403617682
1624632844.892577,0.013542966120479916,2.2246647961129933e-07,5.83,4.89,0.09094110131263733,-0.06647244095802307,0.12195122241973877,-0.05224609375,-0.11181640625,0.06447912117278352,0.0021523168266069856,0.026355000768472078,0.0015607167518603882,1.0266166078136232,1.0309379463272037
1624632844.892577,0.013542966120479916,2.2246647961129933e-07,5.83,4.89,0.09094110131263733,-0.06647244095802307,0.12195122241973877,-0.05224609375,-0.11181640625,0.06447912117278352,0.0021523168266069856,0.026355000768472078,0.0015607167518603882,1.0266166078136232,1.0309379463272037
1624632844.966577,0.018479668539140237,-6.976257844363099e-07,5.83,4.89,0.09094110131263733,-0.06647244095802307,0.12195122241973877,-0.05224609375,-0.11181640625,0.08894615391042941,-0.0036750543099518243,0.026355000768472078,0.0015607167518603882,1.0211234743972388,1.0309379463272037
1624632844.966577,0.018479668539140237,-6.976257844363099e-07,5.83,4.88,0.1861410290002823,0.016357136890292168,0.12195122241973877,-0.05224609375,-0.11181640625,0.08894615391042941,-0.0036750543099518243,0.026355000768472078,0.0015607167518603882,1.0211234743972388,1.0309379463272037
1624632844.966577,0.018479668539140237,-6.976257844363099e-07,5.83,4.88,0.1861410290002823,0.016357136890292168,0.12195122241973877,-0.05224609375,-0.11181640625,0.08894615391042941,-0.0036750543099518243,0.026355000768472078,0.0015607167518603882,1.0211234743972388,1.0309379463272037
1624632844.966577,0.018479668539140237,-6.976257844363099e-07,5.83,4.88,0.1861410290002823,0.016357136890292168,0.12195122241973877,-0.05224609375,-0.11181640625,0.08894615391042941,-0.0036750543099518243,0.026355000768472078,0.0015607167518603882,1.0211234743972388,1.0309379463272037
1624632844.966577,0.018479668539140237,-6.976257844363099e-07,5.83,4.88,0.1861410290002823,0.016357136890292168,0.12195122241973877,-0.05224609375,-0.11181640625,0.08894615391042941,-0.0036750543099518243,0.03678427661839292,-0.0011430890967852126,1.0211234743972388,1.0304500271133832
1624632845.012577,0.022441933329696684,-3.883259376154915e-06,5.83,4.88,0.1861410290002823,0.016357136890292168,0.12195122241973877,-0.05224609375,-0.11181640625,0.08675289201330555,-0.003580529813061956,0.03678427661839292,-0.0011430890967852126,1.0191745019242593,1.0304500271133832
1624632845.012577,0.022441933329696684,-3.883259376154915e-06,5.83,4.88,0.1861410290002823,0.016357136890292168,0.12195122241973877,-0.05224609375,-0.11181640625,0.08675289201330555,-0.003580529813061956,0.03678427661839292,-0.0011430890967852126,1.0191745019242593,1.0304500271133832
1624632845.012577,0.022441933329696684,-3.883259376154915e-06,5.83,4.88,0.30183207988739014,0.0005224680644460022,-2.865853786468506,0.173828125,-0.35888671875,0.08675289201330555,-0.003580529813061956,0.03678427661839292,-0.0011430890967852126,1.0191745019242593,1.0304500271133832
1624632845.012577,0.022441933329696684,-3.883259376154915e-06,5.83,4.88,0.30183207988739014,0.0005224680644460022,-2.865853786468506,0.173828125,-0.35888671875,0.08675289201330555,-0.003580529813061956,0.03678427661839292,-0.0011430890967852126,1.0191745019242593,1.0304500271133832
1624632845.012577,0.022441933329696684,-3.883259376154915e-06,5.83,4.88,0.30183207988739014,0.0005224680644460022,-2.865853786468506,0.173828125,-0.35888671875,0.08675289201330555,-0.003580529813061956,0.04519157625846996,-0.002413636013215343,1.0191745019242593,1.029675012994621
1624632845.072577,0.025982662495749428,-9.52879504487155e-06,5.83,4.88,0.30183207988739014,0.0005224680644460022,-2.865853786468506,0.173828125,-0.35888671875,0.08914719216711892,0.007239338508090188,0.04519157625846996,-0.002413636013215343,1.0188199372847608,1.029675012994621
1624632845.072577,0.025982662495749428,-9.52879504487155e-06,5.83,4.88,0.30183207988739014,0.0005224680644460022,-2.865853786468506,0.173828125,-0.35888671875,0.08914719216711892,0.007239338508090188,0.04519157625846996,-0.002413636013215343,1.0188199372847608,1.029675012994621
1624632845.072577,0.025982662495749428,-9.52879504487155e-06,5.83,4.88,0.40900832414627075,0.050120264291763306,-2.865853786468506,0.173828125,-0.35888671875,0.08914719216711892,0.007239338508090188,0.04519157625846996,-0.002413636013215343,1.0188199372847608,1.029675012994621
1624632845.072577,0.025982662495749428,-9.52879504487155e-06,5.83,4.88,0.40900832414627075,0.050120264291763306,-2.865853786468506,0.173828125,-0.35888671875,0.08914719216711892,0.007239338508090188,0.05329000476672786,0.001500977643590775,1.0188199372847608,1.0291382288607696
1624632845.072577,0.025982662495749428,-9.52879504487155e-06,5.83,4.88,0.40900832414627075,0.050120264291763306,-2.865853786468506,0.173828125,-0.35888671875,0.08914719216711892,0.007239338508090188,0.05329000476672786,0.001500977643590775,1.0188199372847608,1.0291382288607696
1624632845.132577,0.02963972298103019,-1.5241232429606164e-05,5.83,4.88,0.40900832414627075,0.050120264291763306,-2.865853786468506,0.173828125,-0.35888671875,0.09794957916399663,0.006845649471813891,0.05329000476672786,0.001500977643590775,1.0200925112849715,1.0291382288607696
1624632845.132577,0.02963972298103019,-1.5241232429606164e-05,5.83,4.88,0.40900832414627075,0.050120264291763306,-2.865853786468506,0.173828125,-0.35888671875,0.09794957916399663,0.006845649471813891,0.05329000476672786,0.001500977643590775,1.0200925112849715,1.0291382288607696
1624632845.132577,0.02963972298103019,-1.5241232429606164e-05,5.83,4.88,0.40900832414627075,0.050120264291763306,-2.865853786468506,0.173828125,-0.35888671875,0.09794957916399663,0.006845649471813891,0.05329000476672786,0.001500977643590775,1.0200925112849715,1.0291382288607696
1624632845.132577,0.02963972298103019,-1.5241232429606164e-05,5.83,4.88,0.40900832414627075,0.050120264291763306,-2.987804889678955,0.15087890625,-0.0908203125,0.09794957916399663,0.006845649471813891,0.061827092800244385,0.0031301699853954787,1.0200925112849715,1.0287595294040308
1624632845.132577,0.02963972298103019,-1.5241232429606164e-05,5.83,4.88,0.5071697235107422,0.04960761219263077,-2.987804889678955,0.15087890625,-0.0908203125,0.09794957916399663,0.006845649471813891,0.061827092800244385,0.0031301699853954787,1.0200925112849715,1.0287595294040308
1624632845.132577,0.03227761087592009,-1.935504110758693e-05,5.83,4.88,0.5071697235107422,0.04960761219263077,-2.987804889678955,0.15087890625,-0.0908203125,0.09794957916399663,0.006845649471813891,0.061827092800244385,0.0031301699853954787,1.0200925112849715,1.0287595294040308
1624632845.132577,0.03227761087592009,-1.935504110758693e-05,5.83,4.87,0.5071697235107422,0.04960761219263077,-2.987804889678955,0.15087890625,-0.0908203125,0.09794957916399663,0.006845649471813891,0.061827092800244385,0.0031301699853954787,1.0200925112849715,1.0287595294040308
1624632845.132577,0.03227761087592009,-1.935504110758693e-05,5.83,4.87,0.5071697235107422,0.04960761219263077,-2.987804889678955,0.15087890625,-0.0908203125,0.09794957916399663,0.006845649471813891,0.061827092800244385,0.0031301699853954787,1.0200925112849715,1.0287595294040308
1624632845.132577,0.03227761087592009,-1.935504110758693e-05,5.83,4.87,0.5071697235107422,0.04960761219263077,-2.987804889678955,0.15087890625,-0.0908203125,0.09794957916399663,0.006845649471813891,0.06686051352865728,0.0039050219048665513,1.0200925112849715,1.0282947126680482
1624632845.132577,0.03227761087592009,-1.935504110758693e-05,5.83,4.87,0.5344481468200684,0.04903582111001015,-2.987804889678955,0.15087890625,-0.0908203125,0.09794957916399663,0.006845649471813891,0.06686051352865728,0.0039050219048665513,1.0200925112849715,1.0282947126680482
1624632845.192577,0.03567181247059897,-2.1538296236750516e-05,5.83,4.87,0.5344481468200684,0.04903582111001015,-2.987804889678955,0.15087890625,-0.0908203125,0.11260277662390394,0.03521153358122461,0.06686051352865728,0.0039050219048665513,1.0225639047560051,1.0282947126680482
1624632845.192577,0.03567181247059897,-2.1538296236750516e-05,5.83,4.87,0.5344481468200684,0.04903582111001015,-2.987804889678955,0.15087890625,-0.0908203125,0.11260277662390394,0.03521153358122461,0.06686051352865728,0.0039050219048665513,1.0225639047560051,1.0282947126680482
1624632845.192577,0.03567181247059897,-2.1538296236750516e-05,5.83,4.87,0.5344481468200684,0.04903582111001015,-0.12195122241973877,-0.00390625,0.0654296875,0.11260277662390394,0.03521153358122461,0.06686051352865728,0.0039050219048665513,1.0225639047560051,1.0282947126680482
1624632845.192577,0.03567181247059897,-2.1538296236750516e-05,5.83,4.87,0.5344481468200684,0.04903582111001015,-0.12195122241973877,-0.00390625,0.0654296875,0.11260277662390394,0.03521153358122461,0.07525436467531903,0.015942874128799592,1.0225639047560051,1.0288347675242857
1624632845.192577,0.03567181247059897,-2.1538296236750516e-05,5.83,4.87,0.5344481468200684,0.04903582111001015,-0.12195122241973877,-0.00390625,0.0654296875,0.11260277662390394,0.03521153358122461,0.07525436467531903,0.015942874128799592,1.0225639047560051,1.0288347675242857
1624632845.278577,0.03977950949281085,-1.991982213291398e-05,5.83,4.87,0.5427964925765991,0.01580403372645378,-0.12195122241973877,-0.00390625,0.0654296875,0.1271305888524457,0.024291667598947055,0.07525436467531903,0.015942874128799592,1.0250811653359269,1.0288347675242857
1624632845.278577,0.03977950949281085,-1.991982213291398e-05,5.83,4.85,0.5427964925765991,0.01580403372645378,-0.12195122241973877,-0.00390625,0.0654296875,0.1271305888524457,0.024291667598947055,0.07525436467531903,0.015942874128799592,1.0250811653359269,1.0288347675242857
1624632845.278577,0.03977950949281085,-1.991982213291398e-05,5.83,4.85,0.5427964925765991,0.01580403372645378,-0.12195122241973877,-0.00390625,0.0654296875,0.1271305888524457,0.024291667598947055,0.07525436467531903,0.015942874128799592,1.0250811653359269,1.0288347675242857
1624632845.278577,0.03977950949281085,-1.991982213291398e-05,5.83,4.85,0.5427964925765991,0.01580403372645378,-0.12195122241973877,-0.00390625,0.0654296875,0.1271305888524457,0.024291667598947055,0.08615467839898364,0.01981776329266901,1.0250811653359269,1.0301980879666424
1624632845.278577,0.03977950949281085,-1.991982213291398e-05,5.83,4.85,0.5427964925765991,0.01580403372645378,-0.12195122241973877,-0.00390625,0.0654296875,0.1271305888524457,0.024291667598947055,0.08615467839898364,0.01981776329266901,1.0250811653359269,1.0301980879666424
1624632845.312577,0.04483539506920414,-1.4681273612495214e-05,5.83,4.85,0.5427964925765991,0.01580403372645378,-0.12195122241973877,-0.00390625,0.0654296875,0.14922792231430426,0.023486859346794228,0.08615467839898364,0.01981776329266901,1.0263402562020403,1.0301980879666424
1624632845.312577,0.04483539506920414,-1.4681273612495214e-05,5.83,4.85,0.5252324938774109,-0.0005317867617122829,-0.12195122241973877,-0.00390625,0.0654296875,0.14922792231430426,0.023486859346794228,0.08615467839898364,0.01981776329266901,1.0263402562020403,1.0301980879666424
1624632845.312577,0.04483539506920414,-1.4681273612495214e-05,5.83,4.85,0.5252324938774109,-0.0005317867617122829,-0.12195122241973877,-0.00390625,0.0654296875,0.14922792231430426,0.023486859346794228,0.08615467839898364,0.01981776329266901,1.0263402562020403,1.0301980879666424
1624632845.312577,0.04483539506920414,-1.4681273612495214e-05,5.83,4.85,0.5252324938774109,-0.0005317867617122829,-0.3658536672592163,-0.05859375,0.09912109375,0.14922792231430426,0.023486859346794228,0.08615467839898364,0.01981776329266901,1.0263402562020403,1.0301980879666424
1624632845.312577,0.04483539506920414,-1.4681273612495214e-05,5.83,4.85,0.5252324938774109,-0.0005317867617122829,-0.3658536672592163,-0.05859375,0.09912109375,0.14922792231430426,0.023486859346794228,0.09714347996436909,0.02098735682659078,1.0263402562020403,1.0305967396250102
1624632845.382577,0.050325380944680406,-5.832612571968389e-06,5.83,4.81,0.5252324938774109,-0.0005317867617122829,-0.3658536672592163,-0.05859375,0.09912109375,0.164641423711123,0.01434970938915564,0.09714347996436909,0.02098735682659078,1.0277860537346934,1.0305967396250102
1624632845.382577,0.050325380944680406,-5.832612571968389e-06,5.83,4.81,0.5252324938774109,-0.0005317867617122829,-0.3658536672592163,-0.05859375,0.09912109375,0.164641423711123,0.01434970938915564,0.09714347996436909,0.02098735682659078,1.0277860537346934,1.0305967396250102
1624632845.382577,0.050325380944680406,-5.832612571968389e-06,5.83,4.81,0.5035335421562195,0.01578299142420292,-0.3658536672592163,-0.05859375,0.09912109375,0.164641423711123,0.01434970938915564,0.09714347996436909,0.02098735682659078,1.0277860537346934,1.0305967396250102
1624632845.382577,0.050325380944680406,-5.832612571968389e-06,5.83,4.81,0.5035335421562195,0.01578299142420292,-0.3658536672592163,-0.05859375,0.09912109375,0.164641423711123,0.01434970938915564,0.11076049267521892,0.01785684659822969,1.0277860537346934,1.0315515060742948
1624632845.382577,0.050325380944680406,-5.832612571968389e-06,5.83,4.81,0.5035335421562195,0.01578299142420292,-0.3658536672592163,-0.05859375,0.09912109375,0.164641423711123,0.01434970938915564,0.11076049267521892,0.01785684659822969,1.0277860537346934,1.0315515060742948
1624632845.432577,0.05607438201641987,4.448015930652633e-06,5.83,4.81,0.5035335421562195,0.01578299142420292,-0.3658536672592163,-0.05859375,0.09912109375,0.18088991352350361,0.013646719223174722,0.11076049267521892,0.01785684659822969,1.0287671286226057,1.0315515060742948
1624632845.432577,0.05607438201641987,4.448015930652633e-06,5.83,4.81,0.5035335421562195,0.01578299142420292,-0.3658536672592163,-0.05859375,0.09912109375,0.18088991352350361,0.013646719223174722,0.11076049267521892,0.01785684659822969,1.0287671286226057,1.0315515060742948
1624632845.432577,0.05607438201641987,4.448015930652633e-06,5.83,4.81,0.5035335421562195,0.01578299142420292,-2.7439024448394775,-0.462890625,0.333984375,0.18088991352350361,0.013646719223174722,0.11076049267521892,0.01785684659822969,1.0287671286226057,1.0315515060742948
1624632845.432577,0.05607438201641987,4.448015930652633e-06,5.83,4.81,0.49363237619400024,0.032158687710762024,-2.7439024448394775,-0.462890625,0.333984375,0.18088991352350361,0.013646719223174722,0.12425435458285981,0.016188153733876255,1.0287671286226057,1.0319883235776348
1624632845.432577,0.05607438201641987,4.448015930652633e-06,5.83,4.81,0.49363237619400024,0.032158687710762024,-2.7439024448394775,-0.462890625,0.333984375,0.18088991352350361,0.013646719223174722,0.12425435458285981,0.016188153733876255,1.0287671286226057,1.0319883235776348
1624632845.492577,0.06171662558161226,1.4718291411768838e-05,5.85,4.78,0.49363237619400024,0.032158687710762024,-2.7439024448394775,-0.462890625,0.333984375,0.1930336789412572,0.01566546196647234,0.12425435458285981,0.016188153733876255,1.0297176823868681,1.0319883235776348
1624632845.492577,0.06171662558161226,1.4718291411768838e-05,5.85,4.78,0.49363237619400024,0.032158687710762024,-2.7439024448394775,-0.462890625,0.333984375,0.1930336789412572,0.01566546196647234,0.12425435458285981,0.016188153733876255,1.0297176823868681,1.0319883235776348
1624632845.492577,0.06171662558161226,1.4718291411768838e-05,5.85,4.78,0.49363237619400024,0.032158687710762024,-2.7439024448394775,-0.462890625,0.333984375,0.1930336789412572,0.01566546196647234,0.13840334657488032,0.015843538008202887,1.0297176823868681,1.0325923132929702
1624632845.492577,0.06171662558161226,1.4718291411768838e-05,5.85,4.78,0.49363237619400024,0.032158687710762024,-2.7439024448394775,-0.462890625,0.333984375,0.1930336789412572,0.01566546196647234,0.13840334657488032,0.015843538008202887,1.0297176823868681,1.0325923132929702
1624632845.492577,0.06171662558161226,1.4718291411768838e-05,5.85,4.78,0.4804005026817322,-0.016484662890434265,-2.7439024448394775,-0.462890625,0.333984375,0.1930336789412572,0.01566546196647234,0.13840334657488032,0.015843538008202887,1.0297176823868681,1.0325923132929702
1624632845.492577,0.06576177241657442,2.2081730549045287e-05,5.85,4.78,0.4804005026817322,-0.016484662890434265,-2.7439024448394775,-0.462890625,0.333984375,0.1930336789412572,0.01566546196647234,0.13840334657488032,0.015843538008202887,1.0297176823868681,1.0325923132929702
1624632845.492577,0.06576177241657442,2.2081730549045287e-05,5.85,4.78,0.4804005026817322,-0.016484662890434265,0.24390244483947754,0.1552734375,-0.28662109375,0.1930336789412572,0.01566546196647234,0.13840334657488032,0.015843538008202887,1.0297176823868681,1.0325923132929702
1624632845.492577,0.06576177241657442,2.2081730549045287e-05,5.85,4.78,0.4804005026817322,-0.016484662890434265,0.24390244483947754,0.1552734375,-0.28662109375,0.1930336789412572,0.01566546196647234,0.1461351933189027,0.015725112451757266,1.0297176823868681,1.032308696123199
1624632845.492577,0.06576177241657442,2.2081730549045287e-05,5.85,4.78,0.4804005026817322,-0.016484662890434265,0.24390244483947754,0.1552734375,-0.28662109375,0.1930336789412572,0.01566546196647234,0.1461351933189027,0.015725112451757266,1.0297176823868681,1.032308696123199
1624632845.492577,0.06576177241657442,2.2081730549045287e-05,5.85,4.78,0.4804005026817322,-0.016484662890434265,0.24390244483947754,0.1552734375,-0.28662109375,0.19921228902794627,0.016674340166671662,0.1461351933189027,0.015725112451757266,1.0304402411665359,1.032308696123199
1624632845.570577,0.06962806532502716,2.9808046478349798e-05,5.85,4.74,0.4978766143321991,0.0005256267613731325,0.24390244483947754,0.1552734375,-0.28662109375,0.19921228902794627,0.016674340166671662,0.1461351933189027,0.015725112451757266,1.0304402411665359,1.032308696123199
1624632845.570577,0.06962806532502716,2.9808046478349798e-05,5.85,4.74,0.4978766143321991,0.0005256267613731325,0.24390244483947754,0.1552734375,-0.28662109375,0.19921228902794627,0.016674340166671662,0.1586447276330442,0.01608609957599528,1.0304402411665359,1.033276151230505
1624632845.570577,0.06962806532502716,2.9808046478349798e-05,5.85,4.74,0.4978766143321991,0.0005256267613731325,0.24390244483947754,0.1552734375,-0.28662109375,0.19921228902794627,0.016674340166671662,0.1586447276330442,0.01608609957599528,1.0304402411665359,1.033276151230505
1624632845.570577,0.06962806532502716,2.9808046478349798e-05,5.85,4.74,0.4978766143321991,0.0005256267613731325,0.24390244483947754,0.1552734375,-0.28662109375,0.19921228902794627,0.016674340166671662,0.1586447276330442,0.01608609957599528,1.0304402411665359,1.033276151230505
1624632845.570577,0.06962806532502716,2.9808046478349798e-05,5.85,4.74,0.4978766143321991,0.0005256267613731325,0.24390244483947754,0.1552734375,-0.28662109375,0.19921228902794627,0.016674340166671662,0.1586447276330442,0.01608609957599528,1.0304402411665359,1.033276151230505
1624632845.612577,0.0736381422674958,3.476270567335251e-05,5.85,4.74,0.4978766143321991,0.0005256267613731325,0.24390244483947754,0.1552734375,-0.28662109375,0.2114147584172978,0.015913077197045513,0.1586447276330442,0.01608609957599528,1.0297509514126029,1.033276151230505
1624632845.612577,0.0736381422674958,3.476270567335251e-05,5.85,4.74,0.5081571340560913,0.016214605420827866,0.24390244483947754,0.1552734375,-0.28662109375,0.2114147584172978,0.015913077197045513,0.1586447276330442,0.01608609957599528,1.0297509514126029,1.033276151230505
1624632845.612577,0.0736381422674958,3.476270567335251e-05,5.85,4.74,0.5081571340560913,0.016214605420827866,-0.12195122241973877,-0.26025390625,-0.69580078125,0.2114147584172978,0.015913077197045513,0.16921487584101005,0.015909931770544016,1.0297509514126029,1.033399236525765
1624632845.612577,0.0736381422674958,3.476270567335251e-05,5.85,4.74,0.5081571340560913,0.016214605420827866,-0.12195122241973877,-0.26025390625,-0.69580078125,0.2114147584172978,0.015913077197045513,0.16921487584101005,0.015909931770544016,1.0297509514126029,1.033399236525765
1624632845.612577,0.0736381422674958,3.476270567335251e-05,5.85,4.74,0.5081571340560913,0.016214605420827866,-0.12195122241973877,-0.26025390625,-0.69580078125,0.2181652035376535,0.01635622143426223,0.16921487584101005,0.015909931770544016,1.0301719421632765,1.033399236525765
1624632845.674577,0.07733148717167986,3.7430303587168295e-05,5.85,4.71,0.5081571340560913,0.016214605420827866,-0.12195122241973877,-0.26025390625,-0.69580078125,0.2181652035376535,0.01635622143426223,0.16921487584101005,0.015909931770544016,1.0301719421632765,1.033399236525765
1624632845.674577,0.07733148717167986,3.7430303587168295e-05,5.85,4.71,0.5081571340560913,0.016214605420827866,-0.12195122241973877,-0.26025390625,-0.69580078125,0.2181652035376535,0.01635622143426223,0.18082197502338523,0.015991360220339656,1.0301719421632765,1.0337973390301187
1624632845.674577,0.07733148717167986,3.7430303587168295e-05,5.85,4.71,0.5113118290901184,0.01581912860274315,-0.12195122241973877,-0.26025390625,-0.69580078125,0.2181652035376535,0.01635622143426223,0.18082197502338523,0.015991360220339656,1.0301719421632765,1.0337973390301187
1624632845.674577,0.07733148717167986,3.7430303587168295e-05,5.85,4.71,0.5113118290901184,0.01581912860274315,-0.12195122241973877,-0.26025390625,-0.69580078125,0.2181652035376535,0.01635622143426223,0.18082197502338523,0.015991360220339656,1.0301719421632765,1.0337973390301187
1624632845.674577,0.07733148717167986,3.7430303587168295e-05,5.85,4.71,0.5113118290901184,0.01581912860274315,-0.12195122241973877,-0.26025390625,-0.69580078125,0.22529901010434117,0.01536957809283143,0.18082197502338523,0.015991360220339656,1.0302773194649761,1.0337973390301187
1624632845.732577,0.08071700126878723,3.7915087383876175e-05,5.85,4.71,0.5113118290901184,0.01581912860274315,-0.12195122241973877,-0.26025390625,-0.69580078125,0.22529901010434117,0.01536957809283143,0.18082197502338523,0.015991360220339656,1.0302773194649761,1.0337973390301187
1624632845.732577,0.08071700126878723,3.7915087383876175e-05,5.85,4.71,0.5113118290901184,0.01581912860274315,-0.3658536672592163,0.2734375,-0.42822265625,0.22529901010434117,0.01536957809283143,0.18082197502338523,0.015991360220339656,1.0302773194649761,1.0337973390301187
1624632845.732577,0.08071700126878723,3.7915087383876175e-05,5.85,4.71,0.5113118290901184,0.01581912860274315,-0.3658536672592163,0.2734375,-0.42822265625,0.22529901010434117,0.01536957809283143,0.18082197502338523,0.015991360220339656,1.0302773194649761,1.0337973390301187
1624632845.732577,0.08071700126878723,3.7915087383876175e-05,5.85,4.71,0.501394510269165,0.03325045853853226,-0.3658536672592163,0.2734375,-0.42822265625,0.22529901010434117,0.01536957809283143,0.18082197502338523,0.015991360220339656,1.0302773194649761,1.0337973390301187
1624632845.792577,0.08369948351207082,3.691780926950012e-05,5.85,4.71,0.501394510269165,0.03325045853853226,-0.3658536672592163,0.2734375,-0.42822265625,0.23129442785155876,0.011221697700852976,0.18082197502338523,0.015991360220339656,1.030764996628694,1.0337973390301187
1624632845.792577,0.08369948351207082,3.691780926950012e-05,5.86,4.66,0.501394510269165,0.03325045853853226,-0.3658536672592163,0.2734375,-0.42822265625,0.23129442785155876,0.011221697700852976,0.19176522681908506,0.015621462690091216,1.030764996628694,1.0339943260198705
1624632845.792577,0.08369948351207082,3.691780926950012e-05,5.86,4.66,0.501394510269165,0.03325045853853226,-0.3658536672592163,0.2734375,-0.42822265625,0.23129442785155876,0.011221697700852976,0.2023034385610083,0.013579717164614934,1.030764996628694,1.0340959737839583
1624632845.792577,0.08369948351207082,3.691780926950012e-05,5.86,4.66,0.501394510269165,0.03325045853853226,-0.3658536672592163,0.2734375,-0.42822265625,0.23129442785155876,0.011221697700852976,0.2023034385610083,0.013579717164614934,1.030764996628694,1.0340959737839583
1624632845.792577,0.08369948351207082,3.691780926950012e-05,5.86,4.66,0.501394510269165,0.03325045853853226,-0.3658536672592163,0.2734375,-0.42822265625,0.23129442785155876,0.011221697700852976,0.2023034385610083,0.013579717164614934,1.030764996628694,1.0340959737839583
1624632845.792577,0.08584069580022184,3.619320781993244e-05,5.86,4.66,0.5057249069213867,7.3165970206900965e-06,-0.3658536672592163,0.2734375,-0.42822265625,0.23129442785155876,0.011221697700852976,0.2023034385610083,0.013579717164614934,1.030764996628694,1.0340959737839583
1624632845.792577,0.08584069580022184,3.619320781993244e-05,5.86,4.66,0.5057249069213867,7.3165970206900965e-06,-0.12195122241973877,0.10107421875,0.17041015625,0.23129442785155876,0.011221697700852976,0.2023034385610083,0.013579717164614934,1.030764996628694,1.0340959737839583
1624632845.792577,0.08584069580022184,3.619320781993244e-05,5.86,4.66,0.5057249069213867,7.3165970206900965e-06,-0.12195122241973877,0.10107421875,0.17041015625,0.23129442785155876,0.011221697700852976,0.20639218855956595,0.012804250820934164,1.030764996628694,1.0335666518111597
1624632845.792577,0.08584069580022184,3.619320781993244e-05,5.86,4.66,0.5057249069213867,7.3165970206900965e-06,-0.12195122241973877,0.10107421875,0.17041015625,0.23129442785155876,0.011221697700852976,0.20639218855956595,0.012804250820934164,1.030764996628694,1.0335666518111597
1624632845.792577,0.08584069580022184,3.619320781993244e-05,5.86,4.66,0.5057249069213867,7.3165970206900965e-06,-0.12195122241973877,0.10107421875,0.17041015625,0.23129442785155876,0.011221697700852976,0.20639218855956595,0.012804250820934164,1.030764996628694,1.0335666518111597
1624632845.862577,0.0875627682027507,3.470155413230232e-05,5.86,4.66,0.5057249069213867,7.3165970206900965e-06,-0.12195122241973877,0.10107421875,0.17041015625,0.23407719767785296,0.00027349522692550303,0.20639218855956595,0.012804250820934164,1.030876951030218,1.0335666518111597
1624632845.862577,0.0875627682027507,3.470155413230232e-05,5.85,4.66,0.441312700510025,-0.01579495519399643,-0.12195122241973877,0.10107421875,0.17041015625,0.23407719767785296,0.00027349522692550303,0.20639218855956595,0.012804250820934164,1.030876951030218,1.0335666518111597
1624632845.862577,0.0875627682027507,3.470155413230232e-05,5.85,4.66,0.441312700510025,-0.01579495519399643,-0.12195122241973877,0.10107421875,0.17041015625,0.23407719767785296,0.00027349522692550303,0.21568275983402388,0.007098956201502821,1.030876951030218,1.0336709826146602
1624632845.862577,0.0875627682027507,3.470155413230232e-05,5.85,4.66,0.441312700510025,-0.01579495519399643,-0.12195122241973877,0.10107421875,0.17041015625,0.23407719767785296,0.00027349522692550303,0.21568275983402388,0.007098956201502821,1.030876951030218,1.0336709826146602
1624632845.862577,0.0875627682027507,3.470155413230232e-05,5.85,4.66,0.441312700510025,-0.01579495519399643,-0.12195122241973877,0.10107421875,0.17041015625,0.23407719767785296,0.00027349522692550303,0.21568275983402388,0.007098956201502821,1.030876951030218,1.0336709826146602
1624632845.912577,0.08913915964669175,3.298363071441407e-05,5.85,4.66,0.441312700510025,-0.01579495519399643,-0.12195122241973877,0.10107421875,0.17041015625,0.23958134065449452,0.00025451712896906677,0.21568275983402388,0.007098956201502821,1.030765350378228,1.0336709826146602
1624632845.912577,0.08913915964669175,3.298363071441407e-05,5.85,4.66,0.36266180872917175,-0.01579495519399643,-0.12195122241973877,0.10107421875,0.17041015625,0.23958134065449452,0.00025451712896906677,0.21568275983402388,0.007098956201502821,1.030765350378228,1.0336709826146602
1624632845.912577,0.08913915964669175,3.298363071441407e-05,5.85,4.66,0.36266180872917175,-0.01579495519399643,-0.12195122241973877,0.10107421875,0.17041015625,0.23958134065449452,0.00025451712896906677,0.21568275983402388,0.007098956201502821,1.030765350378228,1.0336709826146602
1624632845.912577,0.08913915964669175,3.298363071441407e-05,5.85,4.66,0.36266180872917175,-0.01579495519399643,8.536585807800293,0.04248046875,0.1220703125,0.23958134065449452,0.00025451712896906677,0.21568275983402388,0.007098956201502821,1.030765350378228,1.0336709826146602
1624632845.912577,0.08913915964669175,3.298363071441407e-05,5.85,4.66,0.36266180872917175,-0.01579495519399643,8.536585807800293,0.04248046875,0.1220703125,0.23958134065449452,0.00025451712896906677,0.21568275983402388,0.007098956201502821,1.030765350378228,1.0336709826146602
1624632845.972577,0.08998326640333859,3.104999457483872e-05,5.85,4.66,0.36266180872917175,-0.01579495519399643,8.536585807800293,0.04248046875,0.1220703125,0.2385570052409974,0.007534479272686836,0.22306205065335236,0.00449704048775218,1.0309482881896006,1.0332918266481557
1624632845.972577,0.08998326640333859,3.104999457483872e-05,5.85,4.62,0.36266180872917175,-0.01579495519399643,8.536585807800293,0.04248046875,0.1220703125,0.2385570052409974,0.007534479272686836,0.22306205065335236,0.00449704048775218,1.0309482881896006,1.0332918266481557
1624632845.972577,0.08998326640333859,3.104999457483872e-05,5.85,4.62,0.2547546625137329,-0.0010768374195322394,8.536585807800293,0.04248046875,0.1220703125,0.2385570052409974,0.007534479272686836,0.22306205065335236,0.00449704048775218,1.0309482881896006,1.0332918266481557
1624632845.972577,0.08998326640333859,3.104999457483872e-05,5.85,4.62,0.2547546625137329,-0.0010768374195322394,8.536585807800293,0.04248046875,0.1220703125,0.2385570052409974,0.007534479272686836,0.22306205065335236,0.00449704048775218,1.0309482881896006,1.0332918266481557
1624632845.972577,0.08998326640333859,3.104999457483872e-05,5.85,4.62,0.2547546625137329,-0.0010768374195322394,8.536585807800293,0.04248046875,0.1220703125,0.2385570052409974,0.007534479272686836,0.23001766651784655,0.005765151250139624,1.0309482881896006,1.0330876661462478
1624632846.032577,0.08971261109578879,2.8727662031074897e-05,5.85,4.62,0.2547546625137329,-0.0010768374195322394,8.536585807800293,0.04248046875,0.1220703125,0.23223015291932647,0.007053682592180047,0.23001766651784655,0.005765151250139624,1.0307801161609982,1.0330876661462478
1624632846.032577,0.08971261109578879,2.8727662031074897e-05,5.85,4.62,0.2547546625137329,-0.0010768374195322394,0.8536585569381714,0.1259765625,0.15771484375,0.23223015291932647,0.007053682592180047,0.23490083936940157,0.006164815281284192,1.0307801161609982,1.0328812324429035
1624632846.032577,0.08971261109578879,2.8727662031074897e-05,5.85,4.62,0.2547546625137329,-0.0010768374195322394,0.8536585569381714,0.1259765625,0.15771484375,0.23223015291932647,0.007053682592180047,0.23490083936940157,0.006164815281284192,1.0307801161609982,1.0328812324429035
1624632846.032577,0.08971261109578879,2.8727662031074897e-05,5.85,4.62,0.2547546625137329,-0.0010768374195322394,0.8536585569381714,0.1259765625,0.15771484375,0.23223015291932647,0.007053682592180047,0.23490083936940157,0.006164815281284192,1.0307801161609982,1.0328812324429035
1624632846.032577,0.08971261109578879,2.8727662031074897e-05,5.85,4.62,0.15107876062393188,-0.016907624900341034,0.8536585569381714,0.1259765625,0.15771484375,0.23223015291932647,0.007053682592180047,0.23490083936940157,0.006164815281284192,1.0307801161609982,1.0328812324429035
1624632846.092577,0.0880044930576319,2.6319912568901678e-05,5.85,4.62,0.15107876062393188,-0.016907624900341034,0.8536585569381714,0.1259765625,0.15771484375,0.22046839784935154,0.008183200189517553,0.23490083936940157,0.006164815281284192,1.0303856459276617,1.0328812324429035
1624632846.092577,0.0880044930576319,2.6319912568901678e-05,5.86,4.55,0.15107876062393188,-0.016907624900341034,0.8536585569381714,0.1259765625,0.15771484375,0.22046839784935154,0.008183200189517553,0.23490083936940157,0.006164815281284192,1.0303856459276617,1.0328812324429035
1624632846.092577,0.0880044930576319,2.6319912568901678e-05,5.86,4.55,0.15107876062393188,-0.016907624900341034,0.8536585569381714,0.1259765625,0.15771484375,0.22046839784935154,0.008183200189517553,0.23490083936940157,0.006164815281284192,1.0303856459276617,1.0328812324429035
1624632846.092577,0.0880044930576319,2.6319912568901678e-05,5.86,4.55,0.15107876062393188,-0.016907624900341034,0.8536585569381714,0.1259765625,0.15771484375,0.22046839784935154,0.008183200189517553,0.23490083936940157,0.006164815281284192,1.0303856459276617,1.0328812324429035
1624632846.092577,0.0880044930576319,2.6319912568901678e-05,5.86,4.55,0.06278498470783234,-0.0005395509069785476,0.8536585569381714,0.1259765625,0.15771484375,0.22046839784935154,0.008183200189517553,0.23702395659246775,0.006948004546346901,1.0303856459276617,1.0326472177846164
1624632846.092577,0.08677896499183863,2.460134249681696e-05,5.86,4.55,0.06278498470783234,-0.0005395509069785476,0.8536585569381714,0.1259765625,0.15771484375,0.22046839784935154,0.008183200189517553,0.23702395659246775,0.006948004546346901,1.0303856459276617,1.0326472177846164
1624632846.092577,0.08677896499183863,2.460134249681696e-05,5.86,4.55,0.06278498470783234,-0.0005395509069785476,0.8536585569381714,0.1259765625,0.15771484375,0.22046839784935154,0.008183200189517553,0.23702395659246775,0.006948004546346901,1.0303856459276617,1.0326472177846164
1624632846.092577,0.08677896499183863,2.460134249681696e-05,5.86,4.55,0.06278498470783234,-0.0005395509069785476,2.378048896789551,-0.01806640625,0.16259765625,0.22046839784935154,0.008183200189517553,0.23702395659246775,0.006948004546346901,1.0303856459276617,1.0326472177846164
1624632846.092577,0.08677896499183863,2.460134249681696e-05,5.86,4.55,0.06278498470783234,-0.0005395509069785476,2.378048896789551,-0.01806640625,0.16259765625,0.22046839784935154,0.008183200189517553,0.23702395659246775,0.006948004546346901,1.0303856459276617,1.0326472177846164
1624632846.092577,0.08677896499183863,2.460134249681696e-05,5.86,4.55,0.06278498470783234,-0.0005395509069785476,2.378048896789551,-0.01806640625,0.16259765625,0.1990752458316857,0.005037343677929076,0.23468525795436687,0.007281341799517928,1.0304187055037028,1.032246521690182
1624632846.174577,0.08331192406961692,2.277386894756763e-05,5.85,4.52,0.06278498470783234,-0.0005395509069785476,2.378048896789551,-0.01806640625,0.16259765625,0.1990752458316857,0.005037343677929076,0.23468525795436687,0.007281341799517928,1.0304187055037028,1.032246521690182
1624632846.174577,0.08331192406961692,2.277386894756763e-05,5.85,4.52,0.0037273119669407606,0.0005503020365722477,2.378048896789551,-0.01806640625,0.16259765625,0.1990752458316857,0.005037343677929076,0.23468525795436687,0.007281341799517928,1.0304187055037028,1.032246521690182
1624632846.174577,0.08331192406961692,2.277386894756763e-05,5.85,4.52,0.0037273119669407606,0.0005503020365722477,2.378048896789551,-0.01806640625,0.16259765625,0.1990752458316857,0.005037343677929076,0.23468525795436687,0.007281341799517928,1.0304187055037028,1.032246521690182
1624632846.174577,0.08331192406961692,2.277386894756763e-05,5.85,4.52,0.0037273119669407606,0.0005503020365722477,2.378048896789551,-0.01806640625,0.16259765625,0.1990752458316857,0.005037343677929076,0.23518791773559536,0.006242005016724348,1.0304187055037028,1.0324084718418822
