time,la_x,la_y,uwb_x,uwb_y,vel_linear_x,vel_angular_z,mpu_ang_vel_z,mpu_linear_acc_x,mpu_linear_acc_y,odom_linear_x,odom_angular_z,odom_filtered_linear_x,odom_filtered_angular_z,odom_yaw,odom_filtered_yaw
1624633132.654844,-6.619646877542597e-08,3.3780961279656024e-11,5.82,4.96,,,1.3414634466171265,-0.00439453125,0.0107421875,6.392815723170262e-15,0.0019111380402595018,-2.2188834863074124e-08,0.0018079715995802145,0.7735865070201209,0.7752411635275365
1624633132.654844,-6.619646877542597e-08,3.3780961279656024e-11,5.82,4.96,,,1.3414634466171265,-0.00439453125,0.0107421875,6.392815723170262e-15,0.0019111380402595018,-2.2188834863074124e-08,0.0018079715995802145,0.7735865070201209,0.7752411635275365
1624633132.714844,-6.404036764231467e-08,3.5151685226254085e-11,5.82,4.96,,,1.3414634466171265,-0.00439453125,0.0107421875,6.481347505638993e-15,0.001924636433240987,-2.205105706175729e-08,0.0018046041126220374,0.7735865535475437,0.7752528631113548
1624633132.714844,-6.404036764231467e-08,3.5151685226254085e-11,5.82,4.96,,,1.3414634466171265,-0.00439453125,0.0107421875,6.481347505638993e-15,0.001924636433240987,-2.205105706175729e-08,0.0018046041126220374,0.7735865535475437,0.7752528631113548
1624633132.714844,-6.404036764231467e-08,3.5151685226254085e-11,5.82,4.96,3.211816874681972e-06,-2.9877364795538597e-05,1.3414634466171265,-0.00439453125,0.0107421875,6.481347505638993e-15,0.001924636433240987,-2.205105706175729e-08,0.0018046041126220374,0.7735865535475437,0.7752528631113548
1624633132.714844,-6.404036764231467e-08,3.5151685226254085e-11,5.82,4.96,3.211816874681972e-06,-2.9877364795538597e-05,1.3414634466171265,-0.00439453125,0.0107421875,6.481347505638993e-15,0.001924636433240987,-2.205105706175729e-08,0.0018046041126220374,0.7735865535475437,0.7752528631113548
1624633132.714844,-6.404036764231467e-08,3.5151685226254085e-11,5.82,4.96,3.211816874681972e-06,-2.9877364795538597e-05,1.3414634466171265,-0.00439453125,0.0107421875,6.481347505638993e-15,0.001924636433240987,-2.205105706175729e-08,0.0018046041126220374,0.7735865535475437,0.7752528631113548
1624633132.774844,-6.185558290034361e-08,3.643397020799365e-11,5.82,4.96,3.211816874681972e-06,-2.9877364795538597e-05,1.3414634466171265,-0.00439453125,0.0107421875,6.481347505638993e-15,0.001924636433240987,-2.172743548937757e-08,0.0017390772954482827,0.7735865535475437,0.7752591841026709
1624633132.774844,-6.185558290034361e-08,3.643397020799365e-11,5.82,4.95,3.211816874681972e-06,-2.9877364795538597e-05,1.402438998222351,-0.009765625,0.01171875,6.459569548222521e-15,0.0018040392875305169,-2.172743548937757e-08,0.0017390772954482827,0.7735823512210123,0.7752591841026709
1624633132.774844,-6.185558290034361e-08,3.643397020799365e-11,5.82,4.95,3.211816874681972e-06,-2.9877364795538597e-05,1.402438998222351,-0.009765625,0.01171875,6.459569548222521e-15,0.0018040392875305169,-2.172743548937757e-08,0.0017390772954482827,0.7735823512210123,0.7752591841026709
1624633132.774844,-6.185558290034361e-08,3.643397020799365e-11,5.82,4.95,3.211816874681972e-06,-2.9877364795538597e-05,1.402438998222351,-0.009765625,0.01171875,6.459569548222521e-15,0.0018040392875305169,-2.172743548937757e-08,0.0017390772954482827,0.7735823512210123,0.7752591841026709
1624633132.774844,-6.185558290034361e-08,3.643397020799365e-11,5.82,4.95,3.211816874681972e-06,-2.9877364795538597e-05,1.402438998222351,-0.009765625,0.01171875,6.459569548222521e-15,0.0018040392875305169,-2.172743548937757e-08,0.0017390772954482827,0.7735823512210123,0.7752591841026709
1624633132.8348439,-5.967295486724109e-08,3.7611305115126355e-11,5.82,4.95,3.211816874681972e-06,-2.9877364795538597e-05,1.402438998222351,-0.009765625,0.01171875,6.126104107554635e-15,0.0020081296400567264,-2.127270360269787e-08,0.0017861129945583487,0.7735893411969955,0.7752682542845813
1624633132.8348439,-5.967295486724109e-08,3.7611305115126355e-11,5.82,4.95,3.211816874681972e-06,-2.9877364795538597e-05,1.402438998222351,-0.009765625,0.01171875,6.126104107554635e-15,0.0020081296400567264,-2.127270360269787e-08,0.0017861129945583487,0.7735893411969955,0.7752682542845813
1624633132.8348439,-5.967295486724109e-08,3.7611305115126355e-11,5.82,4.95,3.211816874681972e-06,-2.9877364795538597e-05,1.402438998222351,-0.009765625,0.01171875,6.126104107554635e-15,0.0020081296400567264,-2.127270360269787e-08,0.0017861129945583487,0.7735893411969955,0.7752682542845813
1624633132.8348439,-5.967295486724109e-08,3.7611305115126355e-11,5.82,4.95,3.211816874681972e-06,-2.9877364795538597e-05,1.402438998222351,-0.009765625,0.01171875,6.126104107554635e-15,0.0020081296400567264,-2.127270360269787e-08,0.0017861129945583487,0.7735893411969955,0.7752682542845813
1624633132.8348439,-5.967295486724109e-08,3.7611305115126355e-11,5.82,4.95,3.292112069175346e-06,-3.0624298233306035e-05,1.402438998222351,-0.009765625,0.01171875,6.126104107554635e-15,0.0020081296400567264,-2.127270360269787e-08,0.0017861129945583487,0.7735893411969955,0.7752682542845813
1624633132.8348439,-5.810461609973579e-08,3.845728525818695e-11,5.82,4.95,3.292112069175346e-06,-3.0624298233306035e-05,1.402438998222351,-0.009765625,0.01171875,6.126104107554635e-15,0.0020081296400567264,-1.8279157055971184e-08,0.0018098146416302002,0.7735893411969955,0.7751815129373206
1624633132.8348439,-5.810461609973579e-08,3.845728525818695e-11,5.82,4.95,3.292112069175346e-06,-3.0624298233306035e-05,1.402438998222351,-0.009765625,0.01171875,6.126104107554635e-15,0.0020081296400567264,-1.8279157055971184e-08,0.0018098146416302002,0.7735893411969955,0.7751815129373206
1624633132.8348439,-5.810461609973579e-08,3.845728525818695e-11,5.82,4.95,3.292112069175346e-06,-3.0624298233306035e-05,1.3414634466171265,-0.013671875,0.0009765625,6.126104107554635e-15,0.0020081296400567264,-1.8279157055971184e-08,0.0018098146416302002,0.7735893411969955,0.7751815129373206
1624633132.8348439,-5.810461609973579e-08,3.845728525818695e-11,5.82,4.95,3.292112069175346e-06,-3.0624298233306035e-05,1.3414634466171265,-0.013671875,0.0009765625,6.126104107554635e-15,0.0020081296400567264,-1.8279157055971184e-08,0.0018098146416302002,0.7735893411969955,0.7751815129373206
1624633132.8348439,-5.810461609973579e-08,3.845728525818695e-11,5.82,4.95,3.292112069175346e-06,-3.0624298233306035e-05,1.3414634466171265,-0.013671875,0.0009765625,6.126104107554635e-15,0.0020081296400567264,-1.8279157055971184e-08,0.0018098146416302002,0.7735893411969955,0.7751815129373206
1624633132.916844,-5.6239552742974515e-08,3.9229547750313064e-11,5.82,4.95,3.211816874681972e-06,-2.9877364795538597e-05,1.3414634466171265,-0.013671875,0.0009765625,6.018189998054509e-15,0.0018954744860090866,-1.9486422341871754e-08,0.0018120730100242728,0.7736287292433214,0.7752659468062874
1624633132.916844,-5.6239552742974515e-08,3.9229547750313064e-11,5.82,4.95,3.211816874681972e-06,-2.9877364795538597e-05,1.3414634466171265,-0.013671875,0.0009765625,6.018189998054509e-15,0.0018954744860090866,-1.9486422341871754e-08,0.0018120730100242728,0.7736287292433214,0.7752659468062874
1624633132.916844,-5.6239552742974515e-08,3.9229547750313064e-11,5.82,4.95,3.211816874681972e-06,-2.9877364795538597e-05,1.3414634466171265,-0.013671875,0.0009765625,6.018189998054509e-15,0.0018954744860090866,-1.9486422341871754e-08,0.0018120730100242728,0.7736287292433214,0.7752659468062874
1624633132.916844,-5.6239552742974515e-08,3.9229547750313064e-11,5.82,4.95,3.211816874681972e-06,-2.9877364795538597e-05,1.3414634466171265,-0.013671875,0.0009765625,6.018189998054509e-15,0.0018954744860090866,-1.9486422341871754e-08,0.0018120730100242728,0.7736287292433214,0.7752659468062874
1624633132.916844,-5.6239552742974515e-08,3.9229547750313064e-11,5.82,4.95,3.211816874681972e-06,-2.9877364795538597e-05,1.3414634466171265,-0.013671875,0.0009765625,6.018189998054509e-15,0.0018954744860090866,-1.9486422341871754e-08,0.0018120730100242728,0.7736287292433214,0.7752659468062874
1624633132.954844,-5.45076540576122e-08,4.00017302220613e-11,5.82,4.95,3.211816874681972e-06,-2.9877364795538597e-05,1.3414634466171265,-0.013671875,0.0009765625,5.453321814747196e-15,0.001818208951687404,-1.9486422341871754e-08,0.0018120730100242728,0.7735836271931201,0.7752659468062874
1624633132.954844,-5.45076540576122e-08,4.00017302220613e-11,5.82,4.95,3.211816874681972e-06,-2.9877364795538597e-05,1.3414634466171265,-0.013671875,0.0009765625,5.453321814747196e-15,0.001818208951687404,-1.832381706412015e-08,0.0017589405391829815,0.7735836271931201,0.775237080900315
1624633132.954844,-5.45076540576122e-08,4.00017302220613e-11,5.82,4.95,3.211816874681972e-06,-2.9877364795538597e-05,1.4634146690368652,-0.013671875,0.0078125,5.453321814747196e-15,0.001818208951687404,-1.832381706412015e-08,0.0017589405391829815,0.7735836271931201,0.775237080900315
1624633132.954844,-5.45076540576122e-08,4.00017302220613e-11,5.82,4.95,3.211816874681972e-06,-2.9877364795538597e-05,1.4634146690368652,-0.013671875,0.0078125,5.453321814747196e-15,0.001818208951687404,-1.832381706412015e-08,0.0017589405391829815,0.7735836271931201,0.775237080900315
1624633132.954844,-5.45076540576122e-08,4.00017302220613e-11,5.82,4.95,3.211816874681972e-06,-2.9877364795538597e-05,1.4634146690368652,-0.013671875,0.0078125,5.453321814747196e-15,0.001818208951687404,-1.832381706412015e-08,0.0017589405391829815,0.7735836271931201,0.775237080900315
1624633133.020844,-5.267747413167996e-08,4.0690421223077985e-11,5.82,4.95,3.211816874681972e-06,-2.9877364795538597e-05,1.4634146690368652,-0.013671875,0.0078125,4.6552873562058374e-15,0.002101606961733116,-1.8433167290885107e-08,0.0018576130478831134,0.7736033097702102,0.7752739730689441
1624633133.020844,-5.267747413167996e-08,4.0690421223077985e-11,5.82,4.95,3.211816874681972e-06,-2.9877364795538597e-05,1.4634146690368652,-0.013671875,0.0078125,4.6552873562058374e-15,0.002101606961733116,-1.8433167290885107e-08,0.0018576130478831134,0.7736033097702102,0.7752739730689441
1624633133.020844,-5.267747413167996e-08,4.0690421223077985e-11,5.82,4.95,3.211816874681972e-06,-2.9877364795538597e-05,1.4634146690368652,-0.013671875,0.0078125,4.6552873562058374e-15,0.002101606961733116,-1.8433167290885107e-08,0.0018576130478831134,0.7736033097702102,0.7752739730689441
1624633133.020844,-5.267747413167996e-08,4.0690421223077985e-11,5.82,4.95,3.211816874681972e-06,-2.9877364795538597e-05,1.4634146690368652,-0.013671875,0.0078125,4.6552873562058374e-15,0.002101606961733116,-1.8433167290885107e-08,0.0018576130478831134,0.7736033097702102,0.7752739730689441
1624633133.020844,-5.267747413167996e-08,4.0690421223077985e-11,5.82,4.95,3.211816874681972e-06,-2.9877364795538597e-05,1.4634146690368652,-0.013671875,0.0078125,4.6552873562058374e-15,0.002101606961733116,-1.8433167290885107e-08,0.0018576130478831134,0.7736033097702102,0.7752739730689441
1624633133.074844,-5.088383173103515e-08,4.1314447477962334e-11,5.82,4.95,3.211816874681972e-06,-2.9877364795538597e-05,1.4634146690368652,-0.013671875,0.0078125,4.656839209083617e-15,0.001982220935268977,-1.785799888245708e-08,0.001834432675292768,0.773589140327817,0.7752745790353731
1624633133.074844,-5.088383173103515e-08,4.1314447477962334e-11,5.82,4.97,3.211816874681972e-06,-2.9877364795538597e-05,1.4634146690368652,-0.013671875,0.0078125,4.656839209083617e-15,0.001982220935268977,-1.785799888245708e-08,0.001834432675292768,0.773589140327817,0.7752745790353731
1624633133.074844,-5.088383173103515e-08,4.1314447477962334e-11,5.82,4.97,3.211816874681972e-06,-2.9877364795538597e-05,1.4634146690368652,-0.013671875,0.0078125,4.656839209083617e-15,0.001982220935268977,-1.785799888245708e-08,0.001834432675292768,0.773589140327817,0.7752745790353731
1624633133.074844,-5.088383173103515e-08,4.1314447477962334e-11,5.82,4.97,3.211816874681972e-06,-2.9877364795538597e-05,1.4634146690368652,-0.013671875,0.0078125,4.656839209083617e-15,0.001982220935268977,-1.785799888245708e-08,0.001834432675292768,0.773589140327817,0.7752745790353731
1624633133.074844,-5.088383173103515e-08,4.1314447477962334e-11,5.82,4.97,3.211816874681972e-06,-2.9877364795538597e-05,1.5243902206420898,-0.0146484375,0.01220703125,4.656839209083617e-15,0.001982220935268977,-1.785799888245708e-08,0.001834432675292768,0.773589140327817,0.7752745790353731
1624633133.134844,-4.909140225438856e-08,4.184959262481945e-11,5.82,4.97,3.211816874681972e-06,-2.9877364795538597e-05,1.5243902206420898,-0.0146484375,0.01220703125,4.602690678737323e-15,0.001855919609634482,-1.7490196884011427e-08,0.0017581561173732553,0.7735848206404778,0.7752793600209529
1624633133.134844,-4.909140225438856e-08,4.184959262481945e-11,5.82,4.97,3.211816874681972e-06,-2.9877364795538597e-05,1.5243902206420898,-0.0146484375,0.01220703125,4.602690678737323e-15,0.001855919609634482,-1.7490196884011427e-08,0.0017581561173732553,0.7735848206404778,0.7752793600209529
1624633133.134844,-4.909140225438856e-08,4.184959262481945e-11,5.82,4.97,3.211816874681972e-06,-2.9877364795538597e-05,1.5243902206420898,-0.0146484375,0.01220703125,4.602690678737323e-15,0.001855919609634482,-1.7490196884011427e-08,0.0017581561173732553,0.7735848206404778,0.7752793600209529
1624633133.134844,-4.909140225438856e-08,4.184959262481945e-11,5.82,4.97,3.211816874681972e-06,-2.9877364795538597e-05,1.5243902206420898,-0.0146484375,0.01220703125,4.602690678737323e-15,0.001855919609634482,-1.7490196884011427e-08,0.0017581561173732553,0.7735848206404778,0.7752793600209529
1624633133.134844,-4.909140225438856e-08,4.184959262481945e-11,5.82,4.97,3.211816874681972e-06,-2.9877364795538597e-05,1.5243902206420898,-0.0146484375,0.01220703125,4.602690678737323e-15,0.001855919609634482,-1.7490196884011427e-08,0.0017581561173732553,0.7735848206404778,0.7752793600209529
1624633133.134844,-4.780297127698308e-08,4.223426470955194e-11,5.82,4.97,3.211816874681972e-06,-2.9877364795538597e-05,1.5243902206420898,-0.0146484375,0.01220703125,4.626955462158071e-15,0.002093773496304103,-1.7490196884011427e-08,0.0017581561173732553,0.773592242558785,0.7752793600209529
1624633133.134844,-4.780297127698308e-08,4.223426470955194e-11,5.82,4.97,3.211816874681972e-06,-2.9877364795538597e-05,1.402438998222351,-0.01171875,0.01513671875,4.626955462158071e-15,0.002093773496304103,-1.503123393664112e-08,0.0018264758558007006,0.773592242558785,0.7751948968480559
1624633133.134844,-4.780297127698308e-08,4.223426470955194e-11,5.82,4.97,3.211816874681972e-06,-2.9877364795538597e-05,1.402438998222351,-0.01171875,0.01513671875,4.626955462158071e-15,0.002093773496304103,-1.503123393664112e-08,0.0018264758558007006,0.773592242558785,0.7751948968480559
1624633133.134844,-4.780297127698308e-08,4.223426470955194e-11,5.82,4.97,3.211816874681972e-06,-2.9877364795538597e-05,1.402438998222351,-0.01171875,0.01513671875,4.626955462158071e-15,0.002093773496304103,-1.503123393664112e-08,0.0018264758558007006,0.773592242558785,0.7751948968480559
1624633133.134844,-4.780297127698308e-08,4.223426470955194e-11,5.82,4.97,3.211816874681972e-06,-2.9877364795538597e-05,1.402438998222351,-0.01171875,0.01513671875,4.626955462158071e-15,0.002093773496304103,-1.503123393664112e-08,0.0018264758558007006,0.773592242558785,0.7751948968480559
1624633133.208844,-4.632051048926391e-08,4.253141877234244e-11,5.82,4.97,3.211816874681972e-06,-2.9877364795538597e-05,1.402438998222351,-0.01171875,0.01513671875,4.022409855487013e-15,0.0018805269602905975,-1.57439630376541e-08,0.001811062989979287,0.7736138270141458,0.7752565932965884
1624633133.208844,-4.632051048926391e-08,4.253141877234244e-11,5.82,4.97,3.211816874681972e-06,-2.9877364795538597e-05,1.402438998222351,-0.01171875,0.01513671875,4.022409855487013e-15,0.0018805269602905975,-1.57439630376541e-08,0.001811062989979287,0.7736138270141458,0.7752565932965884
1624633133.208844,-4.632051048926391e-08,4.253141877234244e-11,5.82,4.97,3.211816874681972e-06,-2.9877364795538597e-05,1.402438998222351,-0.01171875,0.01513671875,4.022409855487013e-15,0.0018805269602905975,-1.57439630376541e-08,0.001811062989979287,0.7736138270141458,0.7752565932965884
1624633133.208844,-4.632051048926391e-08,4.253141877234244e-11,5.82,4.97,3.211816874681972e-06,-2.9877364795538597e-05,1.402438998222351,-0.01171875,0.01513671875,4.022409855487013e-15,0.0018805269602905975,-1.57439630376541e-08,0.001811062989979287,0.7736138270141458,0.7752565932965884
1624633133.208844,-4.632051048926391e-08,4.253141877234244e-11,5.82,4.97,3.211816874681972e-06,-2.9877364795538597e-05,1.402438998222351,-0.01171875,0.01513671875,4.022409855487013e-15,0.0018805269602905975,-1.57439630376541e-08,0.001811062989979287,0.7736138270141458,0.7752565932965884
1624633133.254844,-4.4882351224412625e-08,4.281509943927124e-11,5.82,4.95,3.211816874681972e-06,-2.9877364795538597e-05,1.402438998222351,-0.01171875,0.01513671875,3.5997427306546424e-15,0.0017893199922845017,-1.5137212107502612e-08,0.001746398665324249,0.7735829169919887,0.7752408904389366
1624633133.254844,-4.4882351224412625e-08,4.281509943927124e-11,5.82,4.95,3.211816874681972e-06,-2.9877364795538597e-05,1.402438998222351,-0.0068359375,0.017578125,3.5997427306546424e-15,0.0017893199922845017,-1.5137212107502612e-08,0.001746398665324249,0.7735829169919887,0.7752408904389366
1624633133.254844,-4.4882351224412625e-08,4.281509943927124e-11,5.82,4.95,3.211816874681972e-06,-2.9877364795538597e-05,1.402438998222351,-0.0068359375,0.017578125,3.5997427306546424e-15,0.0017893199922845017,-1.5137212107502612e-08,0.001746398665324249,0.7735829169919887,0.7752408904389366
1624633133.254844,-4.4882351224412625e-08,4.281509943927124e-11,5.82,4.95,3.211816874681972e-06,-2.9877364795538597e-05,1.402438998222351,-0.0068359375,0.017578125,3.5997427306546424e-15,0.0017893199922845017,-1.5137212107502612e-08,0.001746398665324249,0.7735829169919887,0.7752408904389366
1624633133.254844,-4.4882351224412625e-08,4.281509943927124e-11,5.82,4.95,3.211816874681972e-06,-2.9877364795538597e-05,1.402438998222351,-0.0068359375,0.017578125,3.5997427306546424e-15,0.0017893199922845017,-1.5137212107502612e-08,0.001746398665324249,0.7735829169919887,0.7752408904389366
1624633133.3086169,-4.3447642539919544e-08,4.303531127579027e-11,5.82,4.95,3.211816874681972e-06,-2.9877364795538597e-05,1.402438998222351,-0.0068359375,0.017578125,3.1982898503301815e-15,0.0018908381684016359,-1.4821097558261125e-08,0.001752551271991817,0.7735819433358652,0.7752381757698885
1624633133.3086169,-4.3447642539919544e-08,4.303531127579027e-11,5.82,4.95,3.211816874681972e-06,-2.9877364795538597e-05,1.402438998222351,-0.0068359375,0.017578125,3.1982898503301815e-15,0.0018908381684016359,-1.4821097558261125e-08,0.001752551271991817,0.7735819433358652,0.7752381757698885
1624633133.3086169,-4.3447642539919544e-08,4.303531127579027e-11,5.82,4.95,3.211816874681972e-06,-2.9877364795538597e-05,1.402438998222351,-0.0068359375,0.017578125,3.1982898503301815e-15,0.0018908381684016359,-1.4821097558261125e-08,0.001752551271991817,0.7735819433358652,0.7752381757698885
1624633133.3086169,-4.3447642539919544e-08,4.303531127579027e-11,5.82,4.95,3.211816874681972e-06,-2.9877364795538597e-05,1.402438998222351,-0.0068359375,0.017578125,3.1982898503301815e-15,0.0018908381684016359,-1.4821097558261125e-08,0.001752551271991817,0.7735819433358652,0.7752381757698885
1624633133.3086169,-4.3447642539919544e-08,4.303531127579027e-11,5.82,4.95,3.211816874681972e-06,-2.9877364795538597e-05,1.402438998222351,-0.0068359375,0.017578125,3.1982898503301815e-15,0.0018908381684016359,-1.4821097558261125e-08,0.001752551271991817,0.7735819433358652,0.7752381757698885
1624633133.368617,-4.198651090835457e-08,4.318137055000666e-11,5.82,4.96,3.211816874681972e-06,-2.9877364795538597e-05,1.402438998222351,-0.0068359375,0.017578125,3.045384204825175e-15,0.0017724332492762176,-1.4646613856728933e-08,0.0016946366913129444,0.7735800606795866,0.7752435496230339
1624633133.368617,-4.198651090835457e-08,4.318137055000666e-11,5.82,4.96,3.211816874681972e-06,-2.9877364795538597e-05,1.3414634466171265,-0.00927734375,0.0087890625,3.045384204825175e-15,0.0017724332492762176,-1.4646613856728933e-08,0.0016946366913129444,0.7735800606795866,0.7752435496230339
1624633133.368617,-4.198651090835457e-08,4.318137055000666e-11,5.82,4.96,3.211816874681972e-06,-2.9877364795538597e-05,1.3414634466171265,-0.00927734375,0.0087890625,3.045384204825175e-15,0.0017724332492762176,-1.4646613856728933e-08,0.0016946366913129444,0.7735800606795866,0.7752435496230339
1624633133.368617,-4.198651090835457e-08,4.318137055000666e-11,5.82,4.96,3.211816874681972e-06,-2.9877364795538597e-05,1.3414634466171265,-0.00927734375,0.0087890625,3.045384204825175e-15,0.0017724332492762176,-1.4646613856728933e-08,0.0016946366913129444,0.7735800606795866,0.7752435496230339
1624633133.368617,-4.198651090835457e-08,4.318137055000666e-11,5.82,4.96,3.211816874681972e-06,-2.9877364795538597e-05,1.3414634466171265,-0.00927734375,0.0087890625,3.045384204825175e-15,0.0017724332492762176,-1.4646613856728933e-08,0.0016946366913129444,0.7735800606795866,0.7752435496230339
1624633133.4106169,-4.0700810116627775e-08,4.315369580490362e-11,5.82,4.96,3.211816874681972e-06,-2.9877364795538597e-05,1.3414634466171265,-0.00927734375,0.0087890625,2.9334691727400303e-15,0.0019550537784263767,-1.3963585451169972e-08,0.0017749639800666937,0.7736666852129899,0.7752724886841309
1624633133.4106169,-4.0700810116627775e-08,4.315369580490362e-11,5.82,4.96,3.211816874681972e-06,-2.9877364795538597e-05,1.3414634466171265,-0.00927734375,0.0087890625,2.9334691727400303e-15,0.0019550537784263767,-1.3963585451169972e-08,0.0017749639800666937,0.7736666852129899,0.7752724886841309
1624633133.4106169,-4.0700810116627775e-08,4.315369580490362e-11,5.82,4.96,3.211816874681972e-06,-2.9877364795538597e-05,1.3414634466171265,-0.00927734375,0.0087890625,2.9334691727400303e-15,0.0019550537784263767,-1.3963585451169972e-08,0.0017749639800666937,0.7736666852129899,0.7752724886841309
1624633133.4106169,-4.0700810116627775e-08,4.315369580490362e-11,5.82,4.96,3.211816874681972e-06,-2.9877364795538597e-05,1.3414634466171265,-0.00927734375,0.0087890625,2.9334691727400303e-15,0.0019550537784263767,-1.3963585451169972e-08,0.0017749639800666937,0.7736666852129899,0.7752724886841309
1624633133.4106169,-4.0700810116627775e-08,4.315369580490362e-11,5.82,4.96,3.211816874681972e-06,-2.9877364795538597e-05,1.3414634466171265,-0.00927734375,0.0087890625,2.9334691727400303e-15,0.0019550537784263767,-1.3963585451169972e-08,0.0017749639800666937,0.7736666852129899,0.7752724886841309
1624633133.428617,-3.9597081077375364e-08,4.3222318269001075e-11,5.82,4.96,3.211816874681972e-06,-2.9877364795538597e-05,1.3414634466171265,-0.00927734375,0.0087890625,2.829212050442334e-15,0.0019151233985297293,-1.2598352465042955e-08,0.0017724887338722752,0.7735851697554007,0.7752137185138372
1624633133.428617,-3.9597081077375364e-08,4.3222318269001075e-11,5.82,4.96,3.211816874681972e-06,-2.9877364795538597e-05,1.3414634466171265,-0.00927734375,0.0087890625,2.829212050442334e-15,0.0019151233985297293,-1.2598352465042955e-08,0.0017724887338722752,0.7735851697554007,0.7752137185138372
1624633133.428617,-3.9597081077375364e-08,4.3222318269001075e-11,5.82,4.96,3.211816874681972e-06,-2.9877364795538597e-05,1.3414634466171265,-0.01416015625,0.01513671875,2.829212050442334e-15,0.0019151233985297293,-1.2598352465042955e-08,0.0017724887338722752,0.7735851697554007,0.7752137185138372
1624633133.428617,-3.9597081077375364e-08,4.3222318269001075e-11,5.82,4.96,3.211816874681972e-06,-2.9877364795538597e-05,1.3414634466171265,-0.01416015625,0.01513671875,2.829212050442334e-15,0.0019151233985297293,-1.2598352465042955e-08,0.0017724887338722752,0.7735851697554007,0.7752137185138372
1624633133.428617,-3.9597081077375364e-08,4.3222318269001075e-11,5.82,4.96,3.211816874681972e-06,-2.9877364795538597e-05,1.3414634466171265,-0.01416015625,0.01513671875,2.829212050442334e-15,0.0019151233985297293,-1.2598352465042955e-08,0.0017724887338722752,0.7735851697554007,0.7752137185138372
1624633133.514617,-3.8277349905399216e-08,4.313944281701476e-11,5.82,4.96,3.211816874681972e-06,-2.9877364795538597e-05,1.3414634466171265,-0.01416015625,0.01513671875,2.6473004392017952e-15,0.0021244118769883674,-1.3491343660370553e-08,0.0018965999083652766,0.7736460506207338,0.7753114424675944
1624633133.514617,-3.8277349905399216e-08,4.313944281701476e-11,5.82,4.96,3.211816874681972e-06,-2.9877364795538597e-05,1.3414634466171265,-0.01416015625,0.01513671875,2.6473004392017952e-15,0.0021244118769883674,-1.3491343660370553e-08,0.0018965999083652766,0.7736460506207338,0.7753114424675944
1624633133.514617,-3.8277349905399216e-08,4.313944281701476e-11,5.82,4.96,3.211816874681972e-06,-2.9877364795538597e-05,1.3414634466171265,-0.01416015625,0.01513671875,2.6473004392017952e-15,0.0021244118769883674,-1.3491343660370553e-08,0.0018965999083652766,0.7736460506207338,0.7753114424675944
1624633133.514617,-3.8277349905399216e-08,4.313944281701476e-11,5.82,4.96,3.211816874681972e-06,-2.9877364795538597e-05,1.3414634466171265,-0.01416015625,0.01513671875,2.6473004392017952e-15,0.0021244118769883674,-1.3491343660370553e-08,0.0018965999083652766,0.7736460506207338,0.7753114424675944
1624633133.514617,-3.8277349905399216e-08,4.313944281701476e-11,5.82,4.96,3.211816874681972e-06,-2.9877364795538597e-05,1.3414634466171265,-0.01416015625,0.01513671875,2.6473004392017952e-15,0.0021244118769883674,-1.3491343660370553e-08,0.0018965999083652766,0.7736460506207338,0.7753114424675944
1624633133.548617,-3.708407960355665e-08,4.309581830176353e-11,5.82,4.96,3.211816874681972e-06,-2.9877364795538597e-05,1.3414634466171265,-0.01416015625,0.01513671875,3.115979186102e-15,0.002046532101128417,-1.252246471358363e-08,0.0018922102145502696,0.7735914167392114,0.7752782509613889
1624633133.548617,-3.708407960355665e-08,4.309581830176353e-11,5.82,4.96,3.211816874681972e-06,-2.9877364795538597e-05,1.402438998222351,-0.01806640625,0.0068359375,3.115979186102e-15,0.002046532101128417,-1.252246471358363e-08,0.0018922102145502696,0.7735914167392114,0.7752782509613889
1624633133.548617,-3.708407960355665e-08,4.309581830176353e-11,5.82,4.96,3.211816874681972e-06,-2.9877364795538597e-05,1.402438998222351,-0.01806640625,0.0068359375,3.115979186102e-15,0.002046532101128417,-1.252246471358363e-08,0.0018922102145502696,0.7735914167392114,0.7752782509613889
1624633133.548617,-3.708407960355665e-08,4.309581830176353e-11,5.82,4.96,3.211816874681972e-06,-2.9877364795538597e-05,1.402438998222351,-0.01806640625,0.0068359375,3.115979186102e-15,0.002046532101128417,-1.252246471358363e-08,0.0018922102145502696,0.7735914167392114,0.7752782509613889
1624633133.548617,-3.708407960355665e-08,4.309581830176353e-11,5.82,4.96,3.211816874681972e-06,-2.9877364795538597e-05,1.402438998222351,-0.01806640625,0.0068359375,3.115979186102e-15,0.002046532101128417,-1.252246471358363e-08,0.0018922102145502696,0.7735914167392114,0.7752782509613889
1624633133.6086168,-3.585793431162484e-08,4.298563533782443e-11,5.82,4.96,3.211816874681972e-06,-2.9877364795538597e-05,1.402438998222351,-0.01806640625,0.0068359375,3.3026628173230674e-15,0.0019374981264529993,-1.2414035430347851e-08,0.0018530266831330896,0.7735885352761531,0.7752903084993299
1624633133.6086168,-3.585793431162484e-08,4.298563533782443e-11,5.82,4.96,3.211816874681972e-06,-2.9877364795538597e-05,1.402438998222351,-0.01806640625,0.0068359375,3.3026628173230674e-15,0.0019374981264529993,-1.2414035430347851e-08,0.0018530266831330896,0.7735885352761531,0.7752903084993299
1624633133.6086168,-3.585793431162484e-08,4.298563533782443e-11,5.82,4.96,3.292112069175346e-06,-3.0624298233306035e-05,1.402438998222351,-0.01806640625,0.0068359375,3.3026628173230674e-15,0.0019374981264529993,-1.2414035430347851e-08,0.0018530266831330896,0.7735885352761531,0.7752903084993299
1624633133.6086168,-3.585793431162484e-08,4.298563533782443e-11,5.82,4.96,3.292112069175346e-06,-3.0624298233306035e-05,1.402438998222351,-0.01806640625,0.0068359375,3.3026628173230674e-15,0.0019374981264529993,-1.2414035430347851e-08,0.0018530266831330896,0.7735885352761531,0.7752903084993299
1624633133.6086168,-3.585793431162484e-08,4.298563533782443e-11,5.81,4.96,3.292112069175346e-06,-3.0624298233306035e-05,1.402438998222351,-0.01806640625,0.0068359375,3.486604007449632e-15,0.0018159547435198224,-1.2414035430347851e-08,0.0018530266831330896,0.7735835315939406,0.7752903084993299
1624633133.668617,-3.4621142271360274e-08,4.281030875769428e-11,5.81,4.96,3.292112069175346e-06,-3.0624298233306035e-05,1.402438998222351,-0.013671875,0.0107421875,3.486604007449632e-15,0.0018159547435198224,-1.2209393254416019e-08,0.0017703429413651387,0.7735835315939406,0.7752958083424177
1624633133.668617,-3.4621142271360274e-08,4.281030875769428e-11,5.81,4.96,3.292112069175346e-06,-3.0624298233306035e-05,1.402438998222351,-0.013671875,0.0107421875,3.486604007449632e-15,0.0018159547435198224,-1.2209393254416019e-08,0.0017703429413651387,0.7735835315939406,0.7752958083424177
1624633133.668617,-3.4621142271360274e-08,4.281030875769428e-11,5.81,4.96,3.292112069175346e-06,-3.0624298233306035e-05,1.402438998222351,-0.013671875,0.0107421875,3.486604007449632e-15,0.0018159547435198224,-1.2209393254416019e-08,0.0017703429413651387,0.7735835315939406,0.7752958083424177
1624633133.668617,-3.4621142271360274e-08,4.281030875769428e-11,5.81,4.96,3.211816874681972e-06,-2.9877364795538597e-05,1.402438998222351,-0.013671875,0.0107421875,3.486604007449632e-15,0.0018159547435198224,-1.2209393254416019e-08,0.0017703429413651387,0.7735835315939406,0.7752958083424177
1624633133.668617,-3.4621142271360274e-08,4.281030875769428e-11,5.81,4.96,3.211816874681972e-06,-2.9877364795538597e-05,1.402438998222351,-0.013671875,0.0107421875,3.486604007449632e-15,0.0018159547435198224,-1.2209393254416019e-08,0.0017703429413651387,0.7735835315939406,0.7752958083424177
1624633133.728617,-3.3389765757128544e-08,4.257349437678745e-11,5.81,4.96,3.211816874681972e-06,-2.9877364795538597e-05,1.402438998222351,-0.013671875,0.0107421875,3.2714368411320386e-15,0.0019407566710826364,-1.1937545340294131e-08,0.0017710654469959958,0.7735876201521765,0.7753009146844864
1624633133.728617,-3.3389765757128544e-08,4.257349437678745e-11,5.81,4.96,3.211816874681972e-06,-2.9877364795538597e-05,1.402438998222351,-0.013671875,0.0107421875,3.2714368411320386e-15,0.0019407566710826364,-1.1937545340294131e-08,0.0017710654469959958,0.7735876201521765,0.7753009146844864
1624633133.728617,-3.3389765757128544e-08,4.257349437678745e-11,5.81,4.96,3.211816874681972e-06,-2.9877364795538597e-05,1.402438998222351,-0.013671875,0.0107421875,3.2714368411320386e-15,0.0019407566710826364,-1.1937545340294131e-08,0.0017710654469959958,0.7735876201521765,0.7753009146844864
1624633133.728617,-3.3389765757128544e-08,4.257349437678745e-11,5.81,4.96,3.211816874681972e-06,-2.9877364795538597e-05,1.402438998222351,-0.013671875,0.0107421875,3.2714368411320386e-15,0.0019407566710826364,-1.1937545340294131e-08,0.0017710654469959958,0.7735876201521765,0.7753009146844864
1624633133.728617,-3.3389765757128544e-08,4.257349437678745e-11,5.81,4.96,3.211816874681972e-06,-2.9877364795538597e-05,1.402438998222351,-0.013671875,0.0107421875,3.2714368411320386e-15,0.0019407566710826364,-1.1937545340294131e-08,0.0017710654469959958,0.7735876201521765,0.7753009146844864
1624633133.728617,-3.250615109274204e-08,4.240356043939914e-11,5.81,4.96,3.211816874681972e-06,-2.9877364795538597e-05,1.3414634466171265,-0.015625,0.015625,3.2714368411320386e-15,0.0019407566710826364,-1.0251861093015052e-08,0.001776667341180435,0.7735876201521765,0.7752107949998754
1624633133.728617,-3.250615109274204e-08,4.240356043939914e-11,5.81,4.96,3.211816874681972e-06,-2.9877364795538597e-05,1.3414634466171265,-0.015625,0.015625,3.2714368411320386e-15,0.0019407566710826364,-1.0251861093015052e-08,0.001776667341180435,0.7735876201521765,0.7752107949998754
1624633133.728617,-3.250615109274204e-08,4.240356043939914e-11,5.81,4.96,3.211816874681972e-06,-2.9877364795538597e-05,1.3414634466171265,-0.015625,0.015625,3.2714368411320386e-15,0.0019407566710826364,-1.0251861093015052e-08,0.001776667341180435,0.7735876201521765,0.7752107949998754
1624633133.728617,-3.250615109274204e-08,4.240356043939914e-11,5.81,4.96,3.211816874681972e-06,-2.9877364795538597e-05,1.3414634466171265,-0.015625,0.015625,3.2714368411320386e-15,0.0019407566710826364,-1.0251861093015052e-08,0.001776667341180435,0.7735876201521765,0.7752107949998754
1624633133.728617,-3.250615109274204e-08,4.240356043939914e-11,5.81,4.96,3.211816874681972e-06,-2.9877364795538597e-05,1.3414634466171265,-0.015625,0.015625,3.2714368411320386e-15,0.0019407566710826364,-1.0251861093015052e-08,0.001776667341180435,0.7735876201521765,0.7752107949998754
1624633133.806617,-3.1475134040370476e-08,4.210234903460404e-11,5.81,4.96,3.211816874681972e-06,-2.9877364795538597e-05,1.3414634466171265,-0.015625,0.015625,2.979770516413029e-15,0.0018628014308795554,-1.0822079719116825e-08,0.0017757557220803152,0.7736187998675373,0.7752802658227483
1624633133.806617,-3.1475134040370476e-08,4.210234903460404e-11,5.81,4.96,3.211816874681972e-06,-2.9877364795538597e-05,1.3414634466171265,-0.015625,0.015625,2.979770516413029e-15,0.0018628014308795554,-1.0822079719116825e-08,0.0017757557220803152,0.7736187998675373,0.7752802658227483
1624633133.806617,-3.1475134040370476e-08,4.210234903460404e-11,5.81,4.96,3.211816874681972e-06,-2.9877364795538597e-05,1.3414634466171265,-0.015625,0.015625,2.979770516413029e-15,0.0018628014308795554,-1.0822079719116825e-08,0.0017757557220803152,0.7736187998675373,0.7752802658227483
1624633133.806617,-3.1475134040370476e-08,4.210234903460404e-11,5.81,4.96,3.211816874681972e-06,-2.9877364795538597e-05,1.3414634466171265,-0.015625,0.015625,2.979770516413029e-15,0.0018628014308795554,-1.0822079719116825e-08,0.0017757557220803152,0.7736187998675373,0.7752802658227483
1624633133.806617,-3.1475134040370476e-08,4.210234903460404e-11,5.81,4.96,3.211816874681972e-06,-2.9877364795538597e-05,1.3414634466171265,-0.015625,0.015625,2.979770516413029e-15,0.0018628014308795554,-1.0822079719116825e-08,0.0017757557220803152,0.7736187998675373,0.7752802658227483
1624633133.8486168,-3.049808771453019e-08,4.1812193208787044e-11,5.81,4.95,3.211816874681972e-06,-2.9877364795538597e-05,1.3414634466171265,-0.015625,0.015625,3.0572929694782986e-15,0.0017793714716790234,-1.028336950143049e-08,0.0017191773733208464,0.7735817580651908,0.7752554885928599
1624633133.8486168,-3.049808771453019e-08,4.1812193208787044e-11,5.81,4.95,3.211816874681972e-06,-2.9877364795538597e-05,1.402438998222351,-0.0166015625,0.00146484375,3.0572929694782986e-15,0.0017793714716790234,-1.028336950143049e-08,0.0017191773733208464,0.7735817580651908,0.7752554885928599
1624633133.8486168,-3.049808771453019e-08,4.1812193208787044e-11,5.81,4.95,3.211816874681972e-06,-2.9877364795538597e-05,1.402438998222351,-0.0166015625,0.00146484375,3.0572929694782986e-15,0.0017793714716790234,-1.028336950143049e-08,0.0017191773733208464,0.7735817580651908,0.7752554885928599
1624633133.8486168,-3.049808771453019e-08,4.1812193208787044e-11,5.81,4.95,3.211816874681972e-06,-2.9877364795538597e-05,1.402438998222351,-0.0166015625,0.00146484375,3.0572929694782986e-15,0.0017793714716790234,-1.028336950143049e-08,0.0017191773733208464,0.7735817580651908,0.7752554885928599
1624633133.8486168,-3.049808771453019e-08,4.1812193208787044e-11,5.81,4.95,3.211816874681972e-06,-2.9877364795538597e-05,1.402438998222351,-0.0166015625,0.00146484375,2.931350010321319e-15,0.001904057980700508,-1.028336950143049e-08,0.0017191773733208464,0.7735878289072109,0.7752554885928599
1624633133.9106169,-2.948491453010931e-08,4.1453132102507086e-11,5.81,4.95,3.211816874681972e-06,-2.9877364795538597e-05,1.402438998222351,-0.0166015625,0.00146484375,2.931350010321319e-15,0.001904057980700508,-1.0244334409399804e-08,0.0017416393756570748,0.7735878289072109,0.7752703999301908
1624633133.9106169,-2.948491453010931e-08,4.1453132102507086e-11,5.81,4.95,3.211816874681972e-06,-2.9877364795538597e-05,1.402438998222351,-0.0166015625,0.00146484375,2.931350010321319e-15,0.001904057980700508,-1.0244334409399804e-08,0.0017416393756570748,0.7735878289072109,0.7752703999301908
1624633133.9106169,-2.948491453010931e-08,4.1453132102507086e-11,5.81,4.95,3.211816874681972e-06,-2.9877364795538597e-05,1.402438998222351,-0.0166015625,0.00146484375,2.931350010321319e-15,0.001904057980700508,-1.0244334409399804e-08,0.0017416393756570748,0.7735878289072109,0.7752703999301908
1624633133.9106169,-2.948491453010931e-08,4.1453132102507086e-11,5.81,4.95,3.211816874681972e-06,-2.9877364795538597e-05,1.402438998222351,-0.0166015625,0.00146484375,2.931350010321319e-15,0.001904057980700508,-1.0244334409399804e-08,0.0017416393756570748,0.7735878289072109,0.7752703999301908
1624633133.9106169,-2.948491453010931e-08,4.1453132102507086e-11,5.81,4.96,3.211816874681972e-06,-2.9877364795538597e-05,1.402438998222351,-0.0166015625,0.00146484375,2.825861186888197e-15,0.00178820129982666,-1.0244334409399804e-08,0.0017416393756570748,0.7735809166428541,0.7752703999301908
1624633133.968617,-2.8472758922525247e-08,4.104738669866651e-11,5.81,4.96,3.211816874681972e-06,-2.9877364795538597e-05,1.402438998222351,-0.0166015625,0.00146484375,2.825861186888197e-15,0.00178820129982666,-1.0025050677499372e-08,0.0016880340806097194,0.7735809166428541,0.7752694267476382
1624633133.968617,-2.8472758922525247e-08,4.104738669866651e-11,5.81,4.96,3.211816874681972e-06,-2.9877364795538597e-05,1.402438998222351,-0.01416015625,0.01025390625,2.825861186888197e-15,0.00178820129982666,-1.0025050677499372e-08,0.0016880340806097194,0.7735809166428541,0.7752694267476382
1624633133.968617,-2.8472758922525247e-08,4.104738669866651e-11,5.81,4.96,3.211816874681972e-06,-2.9877364795538597e-05,1.402438998222351,-0.01416015625,0.01025390625,2.825861186888197e-15,0.00178820129982666,-1.0025050677499372e-08,0.0016880340806097194,0.7735809166428541,0.7752694267476382
1624633133.968617,-2.8472758922525247e-08,4.104738669866651e-11,5.81,4.96,3.211816874681972e-06,-2.9877364795538597e-05,1.402438998222351,-0.01416015625,0.01025390625,2.825861186888197e-15,0.00178820129982666,-1.0025050677499372e-08,0.0016880340806097194,0.7735809166428541,0.7752694267476382
1624633133.968617,-2.8472758922525247e-08,4.104738669866651e-11,5.81,4.96,3.211816874681972e-06,-2.9877364795538597e-05,1.402438998222351,-0.01416015625,0.01025390625,2.4020531566918778e-15,0.0019399690487783806,-1.0025050677499372e-08,0.0016880340806097194,0.7735860152999908,0.7752694267476382
1624633134.028617,-2.7463733517023552e-08,4.0592128116895354e-11,5.81,4.96,3.211816874681972e-06,-2.9877364795538597e-05,1.402438998222351,-0.01416015625,0.01025390625,2.4020531566918778e-15,0.0019399690487783806,-9.80759017472201e-09,0.0017254576664758228,0.7735860152999908,0.7752739542094481
1624633134.028617,-2.7463733517023552e-08,4.0592128116895354e-11,5.81,4.96,3.211816874681972e-06,-2.9877364795538597e-05,1.402438998222351,-0.01416015625,0.01025390625,2.4020531566918778e-15,0.0019399690487783806,-9.80759017472201e-09,0.0017254576664758228,0.7735860152999908,0.7752739542094481
1624633134.028617,-2.7463733517023552e-08,4.0592128116895354e-11,5.81,4.96,3.211816874681972e-06,-2.9877364795538597e-05,1.402438998222351,-0.01416015625,0.01025390625,2.4020531566918778e-15,0.0019399690487783806,-9.80759017472201e-09,0.0017254576664758228,0.7735860152999908,0.7752739542094481
1624633134.028617,-2.7463733517023552e-08,4.0592128116895354e-11,5.81,4.96,3.211816874681972e-06,-2.9877364795538597e-05,1.402438998222351,-0.01416015625,0.01025390625,2.4020531566918778e-15,0.0019399690487783806,-9.80759017472201e-09,0.0017254576664758228,0.7735860152999908,0.7752739542094481
1624633134.028617,-2.7463733517023552e-08,4.0592128116895354e-11,5.81,4.96,3.211816874681972e-06,-2.9877364795538597e-05,1.402438998222351,-0.01416015625,0.01025390625,2.4020531566918778e-15,0.0019399690487783806,-9.80759017472201e-09,0.0017254576664758228,0.7735860152999908,0.7752739542094481
1624633134.028617,-2.6739234272106327e-08,4.0265243881221454e-11,5.82,4.97,3.211816874681972e-06,-2.9877364795538597e-05,1.402438998222351,-0.0078125,0.005859375,2.4020531566918778e-15,0.0019399690487783806,-8.424811979144853e-09,0.0017454193522019653,0.7735860152999908,0.7751862558508771
1624633134.028617,-2.6739234272106327e-08,4.0265243881221454e-11,5.82,4.97,3.211816874681972e-06,-2.9877364795538597e-05,1.402438998222351,-0.0078125,0.005859375,2.4020531566918778e-15,0.0019399690487783806,-8.424811979144853e-09,0.0017454193522019653,0.7735860152999908,0.7751862558508771
1624633134.028617,-2.6739234272106327e-08,4.0265243881221454e-11,5.82,4.97,3.211816874681972e-06,-2.9877364795538597e-05,1.402438998222351,-0.0078125,0.005859375,2.4020531566918778e-15,0.0019399690487783806,-8.424811979144853e-09,0.0017454193522019653,0.7735860152999908,0.7751862558508771
1624633134.028617,-2.6739234272106327e-08,4.0265243881221454e-11,5.82,4.97,3.211816874681972e-06,-2.9877364795538597e-05,1.402438998222351,-0.0078125,0.005859375,2.4020531566918778e-15,0.0019399690487783806,-8.424811979144853e-09,0.0017454193522019653,0.7735860152999908,0.7751862558508771
1624633134.028617,-2.6739234272106327e-08,4.0265243881221454e-11,5.82,4.97,3.211816874681972e-06,-2.9877364795538597e-05,1.402438998222351,-0.0078125,0.005859375,2.061819188923423e-15,0.001939554283391097,-8.424811979144853e-09,0.0017454193522019653,0.773605883312546,0.7751862558508771
1624633134.0986168,-2.5921139588169778e-08,3.9833103200012835e-11,5.82,4.97,3.211816874681972e-06,-2.9877364795538597e-05,1.402438998222351,-0.0078125,0.005859375,2.061819188923423e-15,0.001939554283391097,-8.737998474013778e-09,0.0017924316269027393,0.773605883312546,0.7752349967825269
1624633134.0986168,-2.5921139588169778e-08,3.9833103200012835e-11,5.82,4.97,3.211816874681972e-06,-2.9877364795538597e-05,1.402438998222351,-0.0078125,0.005859375,2.061819188923423e-15,0.001939554283391097,-8.737998474013778e-09,0.0017924316269027393,0.773605883312546,0.7752349967825269
1624633134.0986168,-2.5921139588169778e-08,3.9833103200012835e-11,5.82,4.97,3.211816874681972e-06,-2.9877364795538597e-05,1.402438998222351,-0.0078125,0.005859375,2.061819188923423e-15,0.001939554283391097,-8.737998474013778e-09,0.0017924316269027393,0.773605883312546,0.7752349967825269
1624633134.0986168,-2.5921139588169778e-08,3.9833103200012835e-11,5.82,4.97,3.211816874681972e-06,-2.9877364795538597e-05,1.402438998222351,-0.0078125,0.005859375,2.061819188923423e-15,0.001939554283391097,-8.737998474013778e-09,0.0017924316269027393,0.773605883312546,0.7752349967825269
1624633134.148617,-2.5110788104566377e-08,3.9380548857297177e-11,5.82,4.96,3.211816874681972e-06,-2.9877364795538597e-05,1.402438998222351,-0.0078125,0.005859375,2.1245330390148232e-15,0.0018376952535879413,-8.491605334162821e-09,0.0017536495641252454,0.7735836366358897,0.7752288567838894
1624633134.148617,-2.5110788104566377e-08,3.9380548857297177e-11,5.82,4.96,3.1353451959148515e-06,-2.9165999876568094e-05,1.2804877758026123,-0.00927734375,0.01220703125,2.1245330390148232e-15,0.0018376952535879413,-8.491605334162821e-09,0.0017536495641252454,0.7735836366358897,0.7752288567838894
1624633134.148617,-2.5110788104566377e-08,3.9380548857297177e-11,5.82,4.96,3.1353451959148515e-06,-2.9165999876568094e-05,1.2804877758026123,-0.00927734375,0.01220703125,2.1245330390148232e-15,0.0018376952535879413,-8.491605334162821e-09,0.0017536495641252454,0.7735836366358897,0.7752288567838894
1624633134.148617,-2.5110788104566377e-08,3.9380548857297177e-11,5.82,4.96,3.1353451959148515e-06,-2.9165999876568094e-05,1.2804877758026123,-0.00927734375,0.01220703125,2.1245330390148232e-15,0.0018376952535879413,-8.491605334162821e-09,0.0017536495641252454,0.7735836366358897,0.7752288567838894
1624633134.148617,-2.5110788104566377e-08,3.9380548857297177e-11,5.82,4.96,3.1353451959148515e-06,-2.9165999876568094e-05,1.2804877758026123,-0.00927734375,0.01220703125,2.1245330390148232e-15,0.0018376952535879413,-8.491605334162821e-09,0.0017536495641252454,0.7735836366358897,0.7752288567838894
1624633134.208617,-2.427902721412695e-08,3.887290162298197e-11,5.82,4.96,3.1353451959148515e-06,-2.9165999876568094e-05,1.2804877758026123,-0.00927734375,0.01220703125,2.0656136081506874e-15,0.001951448386735096,-8.414658874707722e-09,0.0017812124686769396,0.773586427307462,0.775241441540478
1624633134.208617,-2.427902721412695e-08,3.887290162298197e-11,5.82,4.96,3.1353451959148515e-06,-2.9165999876568094e-05,1.2804877758026123,-0.00927734375,0.01220703125,2.0656136081506874e-15,0.001951448386735096,-8.414658874707722e-09,0.0017812124686769396,0.773586427307462,0.775241441540478
1624633134.208617,-2.427902721412695e-08,3.887290162298197e-11,5.82,4.96,3.292112069175346e-06,-3.0624298233306035e-05,1.2804877758026123,-0.00927734375,0.01220703125,2.0656136081506874e-15,0.001951448386735096,-8.414658874707722e-09,0.0017812124686769396,0.773586427307462,0.775241441540478
1624633134.208617,-2.427902721412695e-08,3.887290162298197e-11,5.82,4.96,3.292112069175346e-06,-3.0624298233306035e-05,1.2804877758026123,-0.00927734375,0.01220703125,2.0656136081506874e-15,0.001951448386735096,-8.414658874707722e-09,0.0017812124686769396,0.773586427307462,0.775241441540478
1624633134.208617,-2.427902721412695e-08,3.887290162298197e-11,5.82,4.96,3.292112069175346e-06,-3.0624298233306035e-05,1.2804877758026123,-0.00927734375,0.01220703125,2.0656136081506874e-15,0.001951448386735096,-8.414658874707722e-09,0.0017812124686769396,0.773586427307462,0.775241441540478
1624633134.268617,-2.34406177207125e-08,3.831894055895743e-11,5.82,4.95,3.292112069175346e-06,-3.0624298233306035e-05,1.2804877758026123,-0.00927734375,0.01220703125,2.0418934539072153e-15,0.0018288571342508057,-8.273574900562675e-09,0.0017292798414383743,0.7735829447259089,0.7752488373587528
1624633134.268617,-2.34406177207125e-08,3.831894055895743e-11,5.82,4.95,3.292112069175346e-06,-3.0624298233306035e-05,1.3414634466171265,-0.01611328125,0.01025390625,2.0418934539072153e-15,0.0018288571342508057,-8.273574900562675e-09,0.0017292798414383743,0.7735829447259089,0.7752488373587528
1624633134.268617,-2.34406177207125e-08,3.831894055895743e-11,5.82,4.95,3.292112069175346e-06,-3.0624298233306035e-05,1.3414634466171265,-0.01611328125,0.01025390625,2.0418934539072153e-15,0.0018288571342508057,-8.273574900562675e-09,0.0017292798414383743,0.7735829447259089,0.7752488373587528
1624633134.268617,-2.34406177207125e-08,3.831894055895743e-11,5.82,4.95,3.211816874681972e-06,-2.9877364795538597e-05,1.3414634466171265,-0.01611328125,0.01025390625,2.0418934539072153e-15,0.0018288571342508057,-8.273574900562675e-09,0.0017292798414383743,0.7735829447259089,0.7752488373587528
1624633134.268617,-2.34406177207125e-08,3.831894055895743e-11,5.82,4.95,3.211816874681972e-06,-2.9877364795538597e-05,1.3414634466171265,-0.01611328125,0.01025390625,2.0418934539072153e-15,0.0018288571342508057,-8.273574900562675e-09,0.0017292798414383743,0.7735829447259089,0.7752488373587528
1624633134.3286169,-2.2606259752260033e-08,3.772659495093436e-11,5.82,4.95,3.211816874681972e-06,-2.9877364795538597e-05,1.3414634466171265,-0.01611328125,0.01025390625,1.7362108173075938e-15,0.0019634804790002154,-8.08771958596667e-09,0.0017576000839697305,0.7735879102236244,0.7752572467739388
1624633134.3286169,-2.2606259752260033e-08,3.772659495093436e-11,5.82,4.95,3.211816874681972e-06,-2.9877364795538597e-05,1.3414634466171265,-0.01611328125,0.01025390625,1.7362108173075938e-15,0.0019634804790002154,-8.08771958596667e-09,0.0017576000839697305,0.7735879102236244,0.7752572467739388
1624633134.3286169,-2.2606259752260033e-08,3.772659495093436e-11,5.82,4.95,3.211816874681972e-06,-2.9877364795538597e-05,1.3414634466171265,-0.01611328125,0.01025390625,1.7362108173075938e-15,0.0019634804790002154,-8.08771958596667e-09,0.0017576000839697305,0.7735879102236244,0.7752572467739388
1624633134.3286169,-2.2606259752260033e-08,3.772659495093436e-11,5.82,4.95,3.211816874681972e-06,-2.9877364795538597e-05,1.3414634466171265,-0.01611328125,0.01025390625,1.7362108173075938e-15,0.0019634804790002154,-8.08771958596667e-09,0.0017576000839697305,0.7735879102236244,0.7752572467739388
1624633134.3286169,-2.2606259752260033e-08,3.772659495093436e-11,5.82,4.95,3.211816874681972e-06,-2.9877364795538597e-05,1.3414634466171265,-0.01611328125,0.01025390625,1.7362108173075938e-15,0.0019634804790002154,-8.08771958596667e-09,0.0017576000839697305,0.7735879102236244,0.7752572467739388
1624633134.3286169,-2.2007619483699794e-08,3.7301595194199434e-11,5.82,4.96,3.211816874681972e-06,-2.9877364795538597e-05,1.3414634466171265,-0.01611328125,0.01025390625,1.7362108173075938e-15,0.0019634804790002154,-6.945272855144513e-09,0.0017741250160970708,0.7735879102236244,0.7751710909170527
1624633134.3286169,-2.2007619483699794e-08,3.7301595194199434e-11,5.82,4.96,3.211816874681972e-06,-2.9877364795538597e-05,1.3414634466171265,-0.01611328125,0.01025390625,1.7362108173075938e-15,0.0019634804790002154,-6.945272855144513e-09,0.0017741250160970708,0.7735879102236244,0.7751710909170527
1624633134.3286169,-2.2007619483699794e-08,3.7301595194199434e-11,5.82,4.96,3.211816874681972e-06,-2.9877364795538597e-05,1.402438998222351,-0.005859375,0.017578125,1.7362108173075938e-15,0.0019634804790002154,-6.945272855144513e-09,0.0017741250160970708,0.7735879102236244,0.7751710909170527
1624633134.3286169,-2.2007619483699794e-08,3.7301595194199434e-11,5.82,4.96,3.211816874681972e-06,-2.9877364795538597e-05,1.402438998222351,-0.005859375,0.017578125,1.7362108173075938e-15,0.0019634804790002154,-6.945272855144513e-09,0.0017741250160970708,0.7735879102236244,0.7751710909170527
1624633134.3286169,-2.2007619483699794e-08,3.7301595194199434e-11,5.82,4.96,3.211816874681972e-06,-2.9877364795538597e-05,1.402438998222351,-0.005859375,0.017578125,1.7362108173075938e-15,0.0019634804790002154,-6.945272855144513e-09,0.0017741250160970708,0.7735879102236244,0.7751710909170527
1624633134.4106169,-2.1297704354836076e-08,3.673387711607636e-11,5.82,4.96,3.292112069175346e-06,-3.0624298233306035e-05,1.402438998222351,-0.005859375,0.017578125,1.3579662918826847e-15,0.0018762564597214757,-7.3956196161500505e-09,0.0017825341648575095,0.773627166404964,0.7752534944829811
1624633134.4106169,-2.1297704354836076e-08,3.673387711607636e-11,5.82,4.96,3.292112069175346e-06,-3.0624298233306035e-05,1.402438998222351,-0.005859375,0.017578125,1.3579662918826847e-15,0.0018762564597214757,-7.3956196161500505e-09,0.0017825341648575095,0.773627166404964,0.7752534944829811
1624633134.4106169,-2.1297704354836076e-08,3.673387711607636e-11,5.82,4.96,3.292112069175346e-06,-3.0624298233306035e-05,1.402438998222351,-0.005859375,0.017578125,1.3579662918826847e-15,0.0018762564597214757,-7.3956196161500505e-09,0.0017825341648575095,0.773627166404964,0.7752534944829811
1624633134.4106169,-2.1297704354836076e-08,3.673387711607636e-11,5.82,4.96,3.292112069175346e-06,-3.0624298233306035e-05,1.402438998222351,-0.005859375,0.017578125,1.3579662918826847e-15,0.0018762564597214757,-7.3956196161500505e-09,0.0017825341648575095,0.773627166404964,0.7752534944829811
1624633134.4106169,-2.1297704354836076e-08,3.673387711607636e-11,5.82,4.96,3.292112069175346e-06,-3.0624298233306035e-05,1.402438998222351,-0.005859375,0.017578125,1.3579662918826847e-15,0.0018762564597214757,-7.3956196161500505e-09,0.0017825341648575095,0.773627166404964,0.7752534944829811
1624633134.448617,-2.0639393622512508e-08,3.619877335454327e-11,5.81,4.95,3.1353451959148515e-06,-2.9165999876568094e-05,1.402438998222351,-0.005859375,0.017578125,1.2716034423183989e-15,0.0017996989857656212,-6.950339763815859e-09,0.0017321225608212566,0.7735826326143659,0.7752243047894297
1624633134.448617,-2.0639393622512508e-08,3.619877335454327e-11,5.81,4.95,3.1353451959148515e-06,-2.9165999876568094e-05,1.402438998222351,-0.005859375,0.017578125,1.2716034423183989e-15,0.0017996989857656212,-6.950339763815859e-09,0.0017321225608212566,0.7735826326143659,0.7752243047894297
1624633134.448617,-2.0639393622512508e-08,3.619877335454327e-11,5.81,4.95,3.1353451959148515e-06,-2.9165999876568094e-05,1.3414634466171265,-0.01513671875,0.021484375,1.2716034423183989e-15,0.0017996989857656212,-6.950339763815859e-09,0.0017321225608212566,0.7735826326143659,0.7752243047894297
1624633134.448617,-2.0639393622512508e-08,3.619877335454327e-11,5.81,4.95,3.1353451959148515e-06,-2.9165999876568094e-05,1.3414634466171265,-0.01513671875,0.021484375,1.2716034423183989e-15,0.0017996989857656212,-6.950339763815859e-09,0.0017321225608212566,0.7735826326143659,0.7752243047894297
1624633134.448617,-2.0639393622512508e-08,3.619877335454327e-11,5.81,4.95,3.1353451959148515e-06,-2.9165999876568094e-05,1.3414634466171265,-0.01513671875,0.021484375,1.2716034423183989e-15,0.0017996989857656212,-6.950339763815859e-09,0.0017321225608212566,0.7735826326143659,0.7752243047894297
1624633134.514617,-1.994466372923952e-08,3.559266678202399e-11,5.81,4.95,3.1353451959148515e-06,-2.9165999876568094e-05,1.3414634466171265,-0.01513671875,0.021484375,1.4146721740774759e-15,0.0019193773168853028,-6.987925962864877e-09,0.001760832045123788,0.7735963914891852,0.7752552751514852
1624633134.514617,-1.994466372923952e-08,3.559266678202399e-11,5.81,4.95,3.211816874681972e-06,-2.9877364795538597e-05,1.3414634466171265,-0.01513671875,0.021484375,1.4146721740774759e-15,0.0019193773168853028,-6.987925962864877e-09,0.001760832045123788,0.7735963914891852,0.7752552751514852
1624633134.514617,-1.994466372923952e-08,3.559266678202399e-11,5.81,4.95,3.211816874681972e-06,-2.9877364795538597e-05,1.3414634466171265,-0.01513671875,0.021484375,1.4146721740774759e-15,0.0019193773168853028,-6.987925962864877e-09,0.001760832045123788,0.7735963914891852,0.7752552751514852
1624633134.514617,-1.994466372923952e-08,3.559266678202399e-11,5.81,4.95,3.211816874681972e-06,-2.9877364795538597e-05,1.3414634466171265,-0.01513671875,0.021484375,1.4146721740774759e-15,0.0019193773168853028,-6.987925962864877e-09,0.001760832045123788,0.7735963914891852,0.7752552751514852
1624633134.514617,-1.994466372923952e-08,3.559266678202399e-11,5.81,4.95,3.211816874681972e-06,-2.9877364795538597e-05,1.3414634466171265,-0.01513671875,0.021484375,1.4146721740774759e-15,0.0019193773168853028,-6.987925962864877e-09,0.001760832045123788,0.7735963914891852,0.7752552751514852
1624633134.5686169,-1.9264407144251584e-08,3.497164244714429e-11,5.81,4.96,3.211816874681972e-06,-2.9877364795538597e-05,1.4634146690368652,-0.01611328125,0.01025390625,1.589927895261537e-15,0.0018102432246469853,-6.767373920030791e-09,0.0017100266383671015,0.7735820455285047,0.775249550328676
1624633134.5686169,-1.9264407144251584e-08,3.497164244714429e-11,5.81,4.96,3.211816874681972e-06,-2.9877364795538597e-05,1.4634146690368652,-0.01611328125,0.01025390625,1.589927895261537e-15,0.0018102432246469853,-6.767373920030791e-09,0.0017100266383671015,0.7735820455285047,0.775249550328676
1624633134.5686169,-1.9264407144251584e-08,3.497164244714429e-11,5.81,4.96,3.211816874681972e-06,-2.9877364795538597e-05,1.4634146690368652,-0.01611328125,0.01025390625,1.589927895261537e-15,0.0018102432246469853,-6.767373920030791e-09,0.0017100266383671015,0.7735820455285047,0.775249550328676
1624633134.5686169,-1.9264407144251584e-08,3.497164244714429e-11,5.81,4.96,3.211816874681972e-06,-2.9877364795538597e-05,1.4634146690368652,-0.01611328125,0.01025390625,1.589927895261537e-15,0.0018102432246469853,-6.767373920030791e-09,0.0017100266383671015,0.7735820455285047,0.775249550328676
1624633134.5686169,-1.9264407144251584e-08,3.497164244714429e-11,5.81,4.96,3.211816874681972e-06,-2.9877364795538597e-05,1.4634146690368652,-0.01611328125,0.01025390625,2.1343168872770566e-15,0.0015909050334703837,-6.767373920030791e-09,0.0017100266383671015,0.7735743018440184,0.775249550328676
1624633134.628617,-1.8584825973900405e-08,3.4317994664373564e-11,5.81,4.96,3.211816874681972e-06,-2.9877364795538597e-05,1.4634146690368652,-0.01611328125,0.01025390625,2.1343168872770566e-15,0.0015909050334703837,-6.6256279159102506e-09,0.00158798060223593,0.7735743018440184,0.7752445723582403
1624633134.628617,-1.8584825973900405e-08,3.4317994664373564e-11,5.81,4.96,3.211816874681972e-06,-2.9877364795538597e-05,1.4634146690368652,-0.01611328125,0.01025390625,2.1343168872770566e-15,0.0015909050334703837,-6.6256279159102506e-09,0.00158798060223593,0.7735743018440184,0.7752445723582403
1624633134.628617,-1.8584825973900405e-08,3.4317994664373564e-11,5.81,4.96,3.211816874681972e-06,-2.9877364795538597e-05,1.4634146690368652,-0.01611328125,0.01025390625,2.1343168872770566e-15,0.0015909050334703837,-6.6256279159102506e-09,0.00158798060223593,0.7735743018440184,0.7752445723582403
1624633134.628617,-1.8584825973900405e-08,3.4317994664373564e-11,5.81,4.96,3.211816874681972e-06,-2.9877364795538597e-05,1.4634146690368652,-0.01611328125,0.01025390625,2.1343168872770566e-15,0.0015909050334703837,-6.6256279159102506e-09,0.00158798060223593,0.7735743018440184,0.7752445723582403
1624633134.628617,-1.8584825973900405e-08,3.4317994664373564e-11,5.81,4.96,3.211816874681972e-06,-2.9877364795538597e-05,1.4634146690368652,-0.01611328125,0.01025390625,2.1343168872770566e-15,0.0015909050334703837,-6.6256279159102506e-09,0.00158798060223593,0.7735743018440184,0.7752445723582403
1624633134.628617,-1.809651420570333e-08,3.384831728316995e-11,5.82,4.97,3.211816874681972e-06,-2.9877364795538597e-05,1.3414634466171265,-0.00634765625,0.02099609375,2.1343168872770566e-15,0.0015909050334703837,-5.6932298789425944e-09,0.0015454663842761963,0.7735743018440184,0.7751535595508829
1624633134.628617,-1.809651420570333e-08,3.384831728316995e-11,5.82,4.97,3.211816874681972e-06,-2.9877364795538597e-05,1.3414634466171265,-0.00634765625,0.02099609375,2.1343168872770566e-15,0.0015909050334703837,-5.6932298789425944e-09,0.0015454663842761963,0.7735743018440184,0.7751535595508829
1624633134.628617,-1.809651420570333e-08,3.384831728316995e-11,5.82,4.97,3.211816874681972e-06,-2.9877364795538597e-05,1.3414634466171265,-0.00634765625,0.02099609375,2.1343168872770566e-15,0.0015909050334703837,-5.6932298789425944e-09,0.0015454663842761963,0.7735743018440184,0.7751535595508829
1624633134.628617,-1.809651420570333e-08,3.384831728316995e-11,5.82,4.97,3.211816874681972e-06,-2.9877364795538597e-05,1.3414634466171265,-0.00634765625,0.02099609375,2.1343168872770566e-15,0.0015909050334703837,-5.6932298789425944e-09,0.0015454663842761963,0.7735743018440184,0.7751535595508829
1624633134.628617,-1.809651420570333e-08,3.384831728316995e-11,5.82,4.97,3.211816874681972e-06,-2.9877364795538597e-05,1.3414634466171265,-0.00634765625,0.02099609375,2.1343168872770566e-15,0.0015909050334703837,-5.6932298789425944e-09,0.0015454663842761963,0.7735743018440184,0.7751535595508829
1624633134.702617,-1.753489284436195e-08,3.326829621393948e-11,5.82,4.97,3.211816874681972e-06,-2.9877364795538597e-05,1.3414634466171265,-0.00634765625,0.02099609375,1.7783921702863755e-15,0.0017168469694592778,-5.9617148305001294e-09,0.0015821967006889788,0.7735995848160236,0.775199672182207
1624633134.702617,-1.753489284436195e-08,3.326829621393948e-11,5.82,4.97,3.211816874681972e-06,-2.9877364795538597e-05,1.3414634466171265,-0.00634765625,0.02099609375,1.7783921702863755e-15,0.0017168469694592778,-5.9617148305001294e-09,0.0015821967006889788,0.7735995848160236,0.775199672182207
1624633134.702617,-1.753489284436195e-08,3.326829621393948e-11,5.82,4.97,3.211816874681972e-06,-2.9877364795538597e-05,1.3414634466171265,-0.00634765625,0.02099609375,1.7783921702863755e-15,0.0017168469694592778,-5.9617148305001294e-09,0.0015821967006889788,0.7735995848160236,0.775199672182207
1624633134.702617,-1.753489284436195e-08,3.326829621393948e-11,5.82,4.97,3.211816874681972e-06,-2.9877364795538597e-05,1.3414634466171265,-0.00634765625,0.02099609375,1.7783921702863755e-15,0.0017168469694592778,-5.9617148305001294e-09,0.0015821967006889788,0.7735995848160236,0.775199672182207
1624633134.702617,-1.753489284436195e-08,3.326829621393948e-11,5.82,4.97,3.211816874681972e-06,-2.9877364795538597e-05,1.3414634466171265,-0.00634765625,0.02099609375,1.7783921702863755e-15,0.0017168469694592778,-5.9617148305001294e-09,0.0015821967006889788,0.7735995848160236,0.775199672182207
1624633134.748617,-1.6990230822817416e-08,3.2687659766265215e-11,5.81,4.97,3.211816874681972e-06,-2.9877364795538597e-05,1.3414634466171265,-0.00634765625,0.02099609375,1.7085756428031942e-15,0.0016332748786098208,-5.9617148305001294e-09,0.0015821967006889788,0.7735735335260937,0.775199672182207
1624633134.748617,-1.6990230822817416e-08,3.2687659766265215e-11,5.81,4.97,3.211816874681972e-06,-2.9877364795538597e-05,1.402438998222351,-0.01318359375,0.00830078125,1.7085756428031942e-15,0.0016332748786098208,-5.9617148305001294e-09,0.0015821967006889788,0.7735735335260937,0.775199672182207
1624633134.748617,-1.6990230822817416e-08,3.2687659766265215e-11,5.81,4.97,3.211816874681972e-06,-2.9877364795538597e-05,1.402438998222351,-0.01318359375,0.00830078125,1.7085756428031942e-15,0.0016332748786098208,-5.9617148305001294e-09,0.0015821967006889788,0.7735735335260937,0.775199672182207
1624633134.748617,-1.6990230822817416e-08,3.2687659766265215e-11,5.81,4.97,3.211816874681972e-06,-2.9877364795538597e-05,1.402438998222351,-0.01318359375,0.00830078125,1.7085756428031942e-15,0.0016332748786098208,-5.731053094227458e-09,0.0015453746185439968,0.7735735335260937,0.7751787007526499
1624633134.748617,-1.6990230822817416e-08,3.2687659766265215e-11,5.81,4.97,3.211816874681972e-06,-2.9877364795538597e-05,1.402438998222351,-0.01318359375,0.00830078125,1.7085756428031942e-15,0.0016332748786098208,-5.731053094227458e-09,0.0015453746185439968,0.7735735335260937,0.7751787007526499
1624633134.8086169,-1.6430123065765407e-08,3.206259928295997e-11,5.81,4.97,3.211816874681972e-06,-2.9877364795538597e-05,1.402438998222351,-0.01318359375,0.00830078125,1.5093823728442688e-15,0.0018828040103683725,-5.731053094227458e-09,0.0015453746185439968,0.773580531029787,0.7751787007526499
1624633134.8086169,-1.6430123065765407e-08,3.206259928295997e-11,5.81,4.97,3.211816874681972e-06,-2.9877364795538597e-05,1.402438998222351,-0.01318359375,0.00830078125,1.5093823728442688e-15,0.0018828040103683725,-5.731053094227458e-09,0.0015453746185439968,0.773580531029787,0.7751787007526499
1624633134.8086169,-1.6430123065765407e-08,3.206259928295997e-11,5.81,4.97,3.211816874681972e-06,-2.9877364795538597e-05,1.402438998222351,-0.01318359375,0.00830078125,1.5093823728442688e-15,0.0018828040103683725,-5.731053094227458e-09,0.0015453746185439968,0.773580531029787,0.7751787007526499
1624633134.8086169,-1.6430123065765407e-08,3.206259928295997e-11,5.81,4.97,3.211816874681972e-06,-2.9877364795538597e-05,1.402438998222351,-0.01318359375,0.00830078125,1.5093823728442688e-15,0.0018828040103683725,-5.683739565387265e-09,0.001635322994559831,0.773580531029787,0.7751854532288902
1624633134.8086169,-1.6430123065765407e-08,3.206259928295997e-11,5.81,4.96,3.211816874681972e-06,-2.9877364795538597e-05,1.402438998222351,-0.01318359375,0.00830078125,1.373770687973241e-15,0.001764548349498165,-5.683739565387265e-09,0.001635322994559831,0.773578671285254,0.7751854532288902
1624633134.868617,-1.5864729854216984e-08,3.140433784221067e-11,5.81,4.96,3.211816874681972e-06,-2.9877364795538597e-05,1.402438998222351,-0.01318359375,0.00830078125,1.373770687973241e-15,0.001764548349498165,-5.683739565387265e-09,0.001635322994559831,0.773578671285254,0.7751854532288902
1624633134.868617,-1.5864729854216984e-08,3.140433784221067e-11,5.81,4.96,3.211816874681972e-06,-2.9877364795538597e-05,1.402438998222351,-0.01953125,0.0087890625,1.373770687973241e-15,0.001764548349498165,-5.683739565387265e-09,0.001635322994559831,0.773578671285254,0.7751854532288902
1624633134.868617,-1.5864729854216984e-08,3.140433784221067e-11,5.81,4.96,3.211816874681972e-06,-2.9877364795538597e-05,1.402438998222351,-0.01953125,0.0087890625,1.373770687973241e-15,0.001764548349498165,-5.683739565387265e-09,0.001635322994559831,0.773578671285254,0.7751854532288902
1624633134.868617,-1.5864729854216984e-08,3.140433784221067e-11,5.81,4.96,3.211816874681972e-06,-2.9877364795538597e-05,1.402438998222351,-0.01953125,0.0087890625,1.373770687973241e-15,0.001764548349498165,-5.591845571401242e-09,0.001615100594021401,0.773578671285254,0.7751890354928369
1624633134.868617,-1.5864729854216984e-08,3.140433784221067e-11,5.81,4.96,3.211816874681972e-06,-2.9877364795538597e-05,1.402438998222351,-0.01953125,0.0087890625,1.373770687973241e-15,0.001764548349498165,-5.591845571401242e-09,0.001615100594021401,0.773578671285254,0.7751890354928369
1624633134.928617,-1.530148330311741e-08,3.0722043854018147e-11,5.81,4.96,3.211816874681972e-06,-2.9877364795538597e-05,1.402438998222351,-0.01953125,0.0087890625,1.0738278362766496e-15,0.001989428021803917,-5.591845571401242e-09,0.001615100594021401,0.7735872209798197,0.7751890354928369
1624633134.928617,-1.530148330311741e-08,3.0722043854018147e-11,5.81,4.96,3.211816874681972e-06,-2.9877364795538597e-05,1.402438998222351,-0.01953125,0.0087890625,1.0738278362766496e-15,0.001989428021803917,-5.591845571401242e-09,0.001615100594021401,0.7735872209798197,0.7751890354928369
1624633134.928617,-1.530148330311741e-08,3.0722043854018147e-11,5.81,4.96,3.211816874681972e-06,-2.9877364795538597e-05,1.402438998222351,-0.01953125,0.0087890625,1.0738278362766496e-15,0.001989428021803917,-5.468741034236965e-09,0.0017071504290844047,0.7735872209798197,0.7751982707299667
1624633134.928617,-1.530148330311741e-08,3.0722043854018147e-11,5.81,4.96,3.211816874681972e-06,-2.9877364795538597e-05,1.402438998222351,-0.01953125,0.0087890625,1.0738278362766496e-15,0.001989428021803917,-5.468741034236965e-09,0.0017071504290844047,0.7735872209798197,0.7751982707299667
1624633134.928617,-1.530148330311741e-08,3.0722043854018147e-11,5.81,4.96,3.211816874681972e-06,-2.9877364795538597e-05,1.402438998222351,-0.01953125,0.0087890625,1.0738278362766496e-15,0.001989428021803917,-5.468741034236965e-09,0.0017071504290844047,0.7735872209798197,0.7751982707299667
1624633134.928617,-1.4897182926556941e-08,3.023229080415193e-11,5.81,4.96,3.211816874681972e-06,-2.9877364795538597e-05,1.402438998222351,-0.01953125,0.0087890625,1.0738278362766496e-15,0.001989428021803917,-5.468741034236965e-09,0.0017071504290844047,0.7735872209798197,0.7751982707299667
1624633134.928617,-1.4897182926556941e-08,3.023229080415193e-11,5.81,4.96,3.211816874681972e-06,-2.9877364795538597e-05,1.3414634466171265,-0.0107421875,0.01611328125,1.0738278362766496e-15,0.001989428021803917,-5.468741034236965e-09,0.0017071504290844047,0.7735872209798197,0.7751982707299667
1624633134.928617,-1.4897182926556941e-08,3.023229080415193e-11,5.81,4.96,3.211816874681972e-06,-2.9877364795538597e-05,1.3414634466171265,-0.0107421875,0.01611328125,1.0738278362766496e-15,0.001989428021803917,-5.468741034236965e-09,0.0017071504290844047,0.7735872209798197,0.7751982707299667
1624633134.928617,-1.4897182926556941e-08,3.023229080415193e-11,5.81,4.96,3.211816874681972e-06,-2.9877364795538597e-05,1.3414634466171265,-0.0107421875,0.01611328125,1.0738278362766496e-15,0.001989428021803917,-4.6971112426509954e-09,0.001748583487535729,0.7735872209798197,0.7751164636588751
1624633134.928617,-1.4897182926556941e-08,3.023229080415193e-11,5.81,4.96,3.292112069175346e-06,-3.0624298233306035e-05,1.3414634466171265,-0.0107421875,0.01611328125,1.0738278362766496e-15,0.001989428021803917,-4.6971112426509954e-09,0.001748583487535729,0.7735872209798197,0.7751164636588751
1624633135.014617,-1.4409485331247111e-08,2.960738550439026e-11,5.81,4.96,3.292112069175346e-06,-3.0624298233306035e-05,1.3414634466171265,-0.0107421875,0.01611328125,9.579092371351285e-16,0.002194413351866622,-4.6971112426509954e-09,0.001748583487535729,0.7736507718667912,0.7751164636588751
1624633135.014617,-1.4409485331247111e-08,2.960738550439026e-11,5.81,4.96,3.292112069175346e-06,-3.0624298233306035e-05,1.3414634466171265,-0.0107421875,0.01611328125,9.579092371351285e-16,0.002194413351866622,-4.6971112426509954e-09,0.001748583487535729,0.7736507718667912,0.7751164636588751
1624633135.014617,-1.4409485331247111e-08,2.960738550439026e-11,5.81,4.96,3.292112069175346e-06,-3.0624298233306035e-05,1.3414634466171265,-0.0107421875,0.01611328125,9.579092371351285e-16,0.002194413351866622,-4.6971112426509954e-09,0.001748583487535729,0.7736507718667912,0.7751164636588751
1624633135.014617,-1.4409485331247111e-08,2.960738550439026e-11,5.81,4.96,3.292112069175346e-06,-3.0624298233306035e-05,1.3414634466171265,-0.0107421875,0.01611328125,9.579092371351285e-16,0.002194413351866622,-5.047422769913822e-09,0.0019155777078843626,0.7736507718667912,0.7752184739444338
1624633135.014617,-1.4409485331247111e-08,2.960738550439026e-11,5.81,4.95,3.292112069175346e-06,-3.0624298233306035e-05,1.3414634466171265,-0.0107421875,0.01611328125,9.64556422661676e-16,0.0021138858194428524,-5.047422769913822e-09,0.0019155777078843626,0.7735944767861003,0.7752184739444338
1624633135.048617,-1.396666048025193e-08,2.902641074463531e-11,5.81,4.95,3.211816874681972e-06,-2.9877364795538597e-05,1.402438998222351,-0.01513671875,0.0146484375,9.64556422661676e-16,0.0021138858194428524,-5.047422769913822e-09,0.0019155777078843626,0.7735944767861003,0.7752184739444338
1624633135.048617,-1.396666048025193e-08,2.902641074463531e-11,5.81,4.95,3.211816874681972e-06,-2.9877364795538597e-05,1.402438998222351,-0.01513671875,0.0146484375,9.64556422661676e-16,0.0021138858194428524,-5.047422769913822e-09,0.0019155777078843626,0.7735944767861003,0.7752184739444338
1624633135.048617,-1.396666048025193e-08,2.902641074463531e-11,5.81,4.95,3.211816874681972e-06,-2.9877364795538597e-05,1.402438998222351,-0.01513671875,0.0146484375,9.64556422661676e-16,0.0021138858194428524,-4.693011162287212e-09,0.0019315447500161138,0.7735944767861003,0.775192754666178
1624633135.048617,-1.396666048025193e-08,2.902641074463531e-11,5.81,4.95,3.211816874681972e-06,-2.9877364795538597e-05,1.402438998222351,-0.01513671875,0.0146484375,9.64556422661676e-16,0.0021138858194428524,-4.693011162287212e-09,0.0019315447500161138,0.7735944767861003,0.775192754666178
1624633135.048617,-1.396666048025193e-08,2.902641074463531e-11,5.81,4.95,3.211816874681972e-06,-2.9877364795538597e-05,1.402438998222351,-0.01513671875,0.0146484375,9.865304984198712e-16,0.002179243077465289,-4.693011162287212e-09,0.0019315447500161138,0.7735975023323379,0.775192754666178
1624633135.1086168,-1.3509731865901384e-08,2.8404807542886226e-11,5.81,4.95,3.211816874681972e-06,-2.9877364795538597e-05,1.402438998222351,-0.01513671875,0.0146484375,9.865304984198712e-16,0.002179243077465289,-4.693011162287212e-09,0.0019315447500161138,0.7735975023323379,0.775192754666178
1624633135.1086168,-1.3509731865901384e-08,2.8404807542886226e-11,5.81,4.95,3.211816874681972e-06,-2.9877364795538597e-05,1.402438998222351,-0.01513671875,0.0146484375,9.865304984198712e-16,0.002179243077465289,-4.693011162287212e-09,0.0019315447500161138,0.7735975023323379,0.775192754666178
1624633135.1086168,-1.3509731865901384e-08,2.8404807542886226e-11,5.81,4.95,3.211816874681972e-06,-2.9877364795538597e-05,1.402438998222351,-0.01513671875,0.0146484375,9.865304984198712e-16,0.002179243077465289,-4.660090029887235e-09,0.00198585686687502,0.7735975023323379,0.7752185308804325
1624633135.1086168,-1.3509731865901384e-08,2.8404807542886226e-11,5.81,4.95,3.211816874681972e-06,-2.9877364795538597e-05,1.402438998222351,-0.01513671875,0.0146484375,9.865304984198712e-16,0.002179243077465289,-4.660090029887235e-09,0.00198585686687502,0.7735975023323379,0.7752185308804325
1624633135.168617,-1.3047392466674925e-08,2.7754256984598323e-11,5.81,4.96,3.211816874681972e-06,-2.9877364795538597e-05,1.402438998222351,-0.01513671875,0.0146484375,1.2226114686669179e-15,0.002042574653220716,-4.660090029887235e-09,0.00198585686687502,0.7735934104194241,0.7752185308804325
1624633135.168617,-1.3047392466674925e-08,2.7754256984598323e-11,5.81,4.96,3.211816874681972e-06,-2.9877364795538597e-05,1.402438998222351,-0.015625,0.005859375,1.2226114686669179e-15,0.002042574653220716,-4.660090029887235e-09,0.00198585686687502,0.7735934104194241,0.7752185308804325
1624633135.168617,-1.3047392466674925e-08,2.7754256984598323e-11,5.81,4.96,3.211816874681972e-06,-2.9877364795538597e-05,1.402438998222351,-0.015625,0.005859375,1.2226114686669179e-15,0.002042574653220716,-4.660090029887235e-09,0.00198585686687502,0.7735934104194241,0.7752185308804325
1624633135.168617,-1.3047392466674925e-08,2.7754256984598323e-11,5.81,4.96,3.292112069175346e-06,-3.0624298233306035e-05,1.402438998222351,-0.015625,0.005859375,1.2226114686669179e-15,0.002042574653220716,-4.588942268028778e-09,0.0019409163307089112,0.7735934104194241,0.7752388980547661
1624633135.168617,-1.3047392466674925e-08,2.7754256984598323e-11,5.81,4.96,3.292112069175346e-06,-3.0624298233306035e-05,1.402438998222351,-0.015625,0.005859375,1.2226114686669179e-15,0.002042574653220716,-4.588942268028778e-09,0.0019409163307089112,0.7735934104194241,0.7752388980547661
1624633135.228617,-1.258599945343447e-08,2.7084025396312105e-11,5.81,4.96,3.292112069175346e-06,-3.0624298233306035e-05,1.402438998222351,-0.015625,0.005859375,1.4381869379081532e-15,0.0020412075562845464,-4.588942268028778e-09,0.0019409163307089112,0.7735935771619278,0.7752388980547661
1624633135.228617,-1.258599945343447e-08,2.7084025396312105e-11,5.81,4.96,3.292112069175346e-06,-3.0624298233306035e-05,1.402438998222351,-0.015625,0.005859375,1.4381869379081532e-15,0.0020412075562845464,-4.588942268028778e-09,0.0019409163307089112,0.7735935771619278,0.7752388980547661
1624633135.228617,-1.258599945343447e-08,2.7084025396312105e-11,5.81,4.96,3.292112069175346e-06,-3.0624298233306035e-05,1.402438998222351,-0.015625,0.005859375,1.4381869379081532e-15,0.0020412075562845464,-4.490904585335068e-09,0.001913789208876193,0.7735935771619278,0.7752556519929696
1624633135.228617,-1.258599945343447e-08,2.7084025396312105e-11,5.81,4.96,3.292112069175346e-06,-3.0624298233306035e-05,1.402438998222351,-0.015625,0.005859375,1.4381869379081532e-15,0.0020412075562845464,-4.490904585335068e-09,0.001913789208876193,0.7735935771619278,0.7752556519929696
1624633135.228617,-1.258599945343447e-08,2.7084025396312105e-11,5.81,4.96,3.211816874681972e-06,-2.9877364795538597e-05,1.402438998222351,-0.015625,0.005859375,1.4381869379081532e-15,0.0020412075562845464,-4.490904585335068e-09,0.001913789208876193,0.7735935771619278,0.7752556519929696
1624633135.228617,-1.2254609237801764e-08,2.660263928053477e-11,5.81,4.95,3.211816874681972e-06,-2.9877364795538597e-05,1.402438998222351,-0.015625,0.005859375,1.4381869379081532e-15,0.0020412075562845464,-4.490904585335068e-09,0.001913789208876193,0.7735935771619278,0.7752556519929696
1624633135.228617,-1.2254609237801764e-08,2.660263928053477e-11,5.81,4.95,3.211816874681972e-06,-2.9877364795538597e-05,1.402438998222351,-0.01708984375,0.0107421875,1.4381869379081532e-15,0.0020412075562845464,-4.490904585335068e-09,0.001913789208876193,0.7735935771619278,0.7752556519929696
1624633135.228617,-1.2254609237801764e-08,2.660263928053477e-11,5.81,4.95,3.211816874681972e-06,-2.9877364795538597e-05,1.402438998222351,-0.01708984375,0.0107421875,1.4381869379081532e-15,0.0020412075562845464,-3.858222327188845e-09,0.0019080765679969202,0.7735935771619278,0.7751678241751992
1624633135.228617,-1.2254609237801764e-08,2.660263928053477e-11,5.81,4.95,3.211816874681972e-06,-2.9877364795538597e-05,1.402438998222351,-0.01708984375,0.0107421875,1.4381869379081532e-15,0.0020412075562845464,-3.858222327188845e-09,0.0019080765679969202,0.7735935771619278,0.7751678241751992
1624633135.228617,-1.2254609237801764e-08,2.660263928053477e-11,5.81,4.95,3.211816874681972e-06,-2.9877364795538597e-05,1.402438998222351,-0.01708984375,0.0107421875,1.4381869379081532e-15,0.0020412075562845464,-3.858222327188845e-09,0.0019080765679969202,0.7735935771619278,0.7751678241751992
1624633135.306617,-1.186728096719762e-08,2.6019033160203632e-11,5.81,4.95,3.211816874681972e-06,-2.9877364795538597e-05,1.402438998222351,-0.01708984375,0.0107421875,9.059379206162316e-16,0.0020543853070409553,-3.858222327188845e-09,0.0019080765679969202,0.7736300121742232,0.7751678241751992
1624633135.306617,-1.186728096719762e-08,2.6019033160203632e-11,5.81,4.95,3.211816874681972e-06,-2.9877364795538597e-05,1.402438998222351,-0.01708984375,0.0107421875,9.059379206162316e-16,0.0020543853070409553,-4.075447258296944e-09,0.0019345973181131304,0.7736300121742232,0.7752510974845809
1624633135.306617,-1.186728096719762e-08,2.6019033160203632e-11,5.81,4.95,3.211816874681972e-06,-2.9877364795538597e-05,1.402438998222351,-0.01708984375,0.0107421875,9.059379206162316e-16,0.0020543853070409553,-4.075447258296944e-09,0.0019345973181131304,0.7736300121742232,0.7752510974845809
1624633135.306617,-1.186728096719762e-08,2.6019033160203632e-11,5.81,4.95,3.211816874681972e-06,-2.9877364795538597e-05,1.402438998222351,-0.01708984375,0.0107421875,9.059379206162316e-16,0.0020543853070409553,-4.075447258296944e-09,0.0019345973181131304,0.7736300121742232,0.7752510974845809
1624633135.306617,-1.186728096719762e-08,2.6019033160203632e-11,5.81,4.95,3.211816874681972e-06,-2.9877364795538597e-05,1.402438998222351,-0.01708984375,0.0107421875,9.059379206162316e-16,0.0020543853070409553,-4.075447258296944e-09,0.0019345973181131304,0.7736300121742232,0.7752510974845809
1624633135.3486168,-1.1499888555656683e-08,2.5449122957676924e-11,5.81,4.94,3.211816874681972e-06,-2.9877364795538597e-05,1.402438998222351,-0.01708984375,0.0107421875,6.836955586783225e-16,0.001962409929950767,-4.075447258296944e-09,0.0019345973181131304,0.7735900294500042,0.7752510974845809
1624633135.3486168,-1.1499888555656683e-08,2.5449122957676924e-11,5.81,4.94,3.211816874681972e-06,-2.9877364795538597e-05,1.3414634466171265,-0.00537109375,0.01513671875,6.836955586783225e-16,0.001962409929950767,-4.075447258296944e-09,0.0019345973181131304,0.7735900294500042,0.7752510974845809
1624633135.3486168,-1.1499888555656683e-08,2.5449122957676924e-11,5.81,4.94,3.211816874681972e-06,-2.9877364795538597e-05,1.3414634466171265,-0.00537109375,0.01513671875,6.836955586783225e-16,0.001962409929950767,-3.873988898739597e-09,0.0018875343365763809,0.7735900294500042,0.7752354950628856
1624633135.3486168,-1.1499888555656683e-08,2.5449122957676924e-11,5.81,4.94,3.211816874681972e-06,-2.9877364795538597e-05,1.3414634466171265,-0.00537109375,0.01513671875,6.836955586783225e-16,0.001962409929950767,-3.873988898739597e-09,0.0018875343365763809,0.7735900294500042,0.7752354950628856
1624633135.3486168,-1.1499888555656683e-08,2.5449122957676924e-11,5.81,4.94,3.211816874681972e-06,-2.9877364795538597e-05,1.3414634466171265,-0.00537109375,0.01513671875,6.836955586783225e-16,0.001962409929950767,-3.873988898739597e-09,0.0018875343365763809,0.7735900294500042,0.7752354950628856
1624633135.4106169,-1.1118588579688542e-08,2.4840171165072712e-11,5.81,4.94,3.211816874681972e-06,-2.9877364795538597e-05,1.3414634466171265,-0.00537109375,0.01513671875,3.9150467956701e-16,0.0020699362642202356,-3.873988898739597e-09,0.0018875343365763809,0.7735961258068133,0.7752354950628856
1624633135.4106169,-1.1118588579688542e-08,2.4840171165072712e-11,5.81,4.94,3.211816874681972e-06,-2.9877364795538597e-05,1.3414634466171265,-0.00537109375,0.01513671875,3.9150467956701e-16,0.0020699362642202356,-3.873988898739597e-09,0.0018875343365763809,0.7735961258068133,0.7752354950628856
1624633135.4106169,-1.1118588579688542e-08,2.4840171165072712e-11,5.81,4.94,3.211816874681972e-06,-2.9877364795538597e-05,1.3414634466171265,-0.00537109375,0.01513671875,3.9150467956701e-16,0.0020699362642202356,-3.873988898739597e-09,0.0018875343365763809,0.7735961258068133,0.7752354950628856
1624633135.4106169,-1.1118588579688542e-08,2.4840171165072712e-11,5.81,4.94,3.211816874681972e-06,-2.9877364795538597e-05,1.3414634466171265,-0.00537109375,0.01513671875,3.9150467956701e-16,0.0020699362642202356,-3.873988898739597e-09,0.0018875343365763809,0.7735961258068133,0.7752354950628856
1624633135.4106169,-1.1118588579688542e-08,2.4840171165072712e-11,5.81,4.94,3.211816874681972e-06,-2.9877364795538597e-05,1.3414634466171265,-0.00537109375,0.01513671875,3.9150467956701e-16,0.0020699362642202356,-3.873988898739597e-09,0.0018875343365763809,0.7735961258068133,0.7752354950628856
1624633135.468617,-1.0737439064984505e-08,2.4214598220142625e-11,5.81,4.95,3.211816874681972e-06,-2.9877364795538597e-05,1.3414634466171265,-0.00537109375,0.01513671875,1.2784824172375039e-16,0.0019439791830881585,-3.860532138983639e-09,0.0019094396569011335,0.7735885045244034,0.7752619686135496
1624633135.468617,-1.0737439064984505e-08,2.4214598220142625e-11,5.81,4.95,3.211816874681972e-06,-2.9877364795538597e-05,1.402438998222351,-0.0068359375,0.017578125,1.2784824172375039e-16,0.0019439791830881585,-3.860532138983639e-09,0.0019094396569011335,0.7735885045244034,0.7752619686135496
1624633135.468617,-1.0737439064984505e-08,2.4214598220142625e-11,5.81,4.95,3.211816874681972e-06,-2.9877364795538597e-05,1.402438998222351,-0.0068359375,0.017578125,1.2784824172375039e-16,0.0019439791830881585,-3.860532138983639e-09,0.0019094396569011335,0.7735885045244034,0.7752619686135496
1624633135.468617,-1.0737439064984505e-08,2.4214598220142625e-11,5.81,4.95,3.211816874681972e-06,-2.9877364795538597e-05,1.402438998222351,-0.0068359375,0.017578125,1.2784824172375039e-16,0.0019439791830881585,-3.860532138983639e-09,0.0019094396569011335,0.7735885045244034,0.7752619686135496
1624633135.468617,-1.0737439064984505e-08,2.4214598220142625e-11,5.81,4.95,3.211816874681972e-06,-2.9877364795538597e-05,1.402438998222351,-0.0068359375,0.017578125,1.2784824172375039e-16,0.0019439791830881585,-3.778774283937165e-09,0.0018516158324328633,0.7735885045244034,0.7752709985333
1624633135.528617,-1.0357292874760043e-08,2.3574275819683744e-11,5.81,4.95,3.211816874681972e-06,-2.9877364795538597e-05,1.402438998222351,-0.0068359375,0.017578125,2.624521317361564e-16,0.001961254217513405,-3.778774283937165e-09,0.0018516158324328633,0.7735889485706818,0.7752709985333
1624633135.528617,-1.0357292874760043e-08,2.3574275819683744e-11,5.81,4.95,3.211816874681972e-06,-2.9877364795538597e-05,1.402438998222351,-0.0068359375,0.017578125,2.624521317361564e-16,0.001961254217513405,-3.6974483137423144e-09,0.0018269493859025075,0.7735889485706818,0.7752807361472076
1624633135.528617,-1.0357292874760043e-08,2.3574275819683744e-11,5.81,4.95,3.211816874681972e-06,-2.9877364795538597e-05,1.402438998222351,-0.0068359375,0.017578125,2.624521317361564e-16,0.001961254217513405,-3.6974483137423144e-09,0.0018269493859025075,0.7735889485706818,0.7752807361472076
1624633135.528617,-1.0357292874760043e-08,2.3574275819683744e-11,5.81,4.95,3.211816874681972e-06,-2.9877364795538597e-05,1.402438998222351,-0.0068359375,0.017578125,2.624521317361564e-16,0.001961254217513405,-3.6974483137423144e-09,0.0018269493859025075,0.7735889485706818,0.7752807361472076
1624633135.528617,-1.0357292874760043e-08,2.3574275819683744e-11,5.81,4.95,3.211816874681972e-06,-2.9877364795538597e-05,1.402438998222351,-0.0068359375,0.017578125,2.624521317361564e-16,0.001961254217513405,-3.6974483137423144e-09,0.0018269493859025075,0.7735889485706818,0.7752807361472076
1624633135.528617,-1.0084291829669241e-08,2.3114429873634946e-11,5.81,4.93,3.211816874681972e-06,-2.9877364795538597e-05,1.402438998222351,-0.01806640625,0.01025390625,2.624521317361564e-16,0.001961254217513405,-3.6974483137423144e-09,0.0018269493859025075,0.7735889485706818,0.7752807361472076
1624633135.528617,-1.0084291829669241e-08,2.3114429873634946e-11,5.81,4.93,3.211816874681972e-06,-2.9877364795538597e-05,1.402438998222351,-0.01806640625,0.01025390625,2.624521317361564e-16,0.001961254217513405,-3.6974483137423144e-09,0.0018269493859025075,0.7735889485706818,0.7752807361472076
1624633135.528617,-1.0084291829669241e-08,2.3114429873634946e-11,5.81,4.93,3.211816874681972e-06,-2.9877364795538597e-05,1.402438998222351,-0.01806640625,0.01025390625,2.624521317361564e-16,0.001961254217513405,-3.6974483137423144e-09,0.0018269493859025075,0.7735889485706818,0.7752807361472076
1624633135.528617,-1.0084291829669241e-08,2.3114429873634946e-11,5.81,4.93,3.211816874681972e-06,-2.9877364795538597e-05,1.402438998222351,-0.01806640625,0.01025390625,2.624521317361564e-16,0.001961254217513405,-3.6974483137423144e-09,0.0018269493859025075,0.7735889485706818,0.7752807361472076
1624633135.528617,-1.0084291829669241e-08,2.3114429873634946e-11,5.81,4.93,3.211816874681972e-06,-2.9877364795538597e-05,1.402438998222351,-0.01806640625,0.01025390625,2.624521317361564e-16,0.001961254217513405,-3.176380794557362e-09,0.001822562462814528,0.7735889485706818,0.7751913833706533
1624633135.5986168,-9.775926051409312e-09,2.2581195811510292e-11,5.81,4.93,3.211816874681972e-06,-2.9877364795538597e-05,1.402438998222351,-0.01806640625,0.01025390625,1.6965070748661264e-16,0.001768213429633626,-3.176380794557362e-09,0.001822562462814528,0.773600485176024,0.7751913833706533
1624633135.5986168,-9.775926051409312e-09,2.2581195811510292e-11,5.81,4.93,3.211816874681972e-06,-2.9877364795538597e-05,1.402438998222351,-0.01806640625,0.01025390625,1.6965070748661264e-16,0.001768213429633626,-3.176380794557362e-09,0.001822562462814528,0.773600485176024,0.7751913833706533
1624633135.5986168,-9.775926051409312e-09,2.2581195811510292e-11,5.81,4.93,3.211816874681972e-06,-2.9877364795538597e-05,1.402438998222351,-0.01806640625,0.01025390625,1.6965070748661264e-16,0.001768213429633626,-3.176380794557362e-09,0.001822562462814528,0.773600485176024,0.7751913833706533
1624633135.5986168,-9.775926051409312e-09,2.2581195811510292e-11,5.81,4.93,3.211816874681972e-06,-2.9877364795538597e-05,1.402438998222351,-0.01806640625,0.01025390625,1.6965070748661264e-16,0.001768213429633626,-3.176380794557362e-09,0.001822562462814528,0.773600485176024,0.7751913833706533
1624633135.5986168,-9.775926051409312e-09,2.2581195811510292e-11,5.81,4.94,3.211816874681972e-06,-2.9877364795538597e-05,1.402438998222351,-0.01806640625,0.01025390625,1.4546836749812022e-16,0.0016752463113807107,-3.2948247040696875e-09,0.0017574258884700358,0.7735777176377949,0.7752384065388794
1624633135.648617,-9.470420089915346e-09,2.2037863838255527e-11,5.81,4.94,3.211816874681972e-06,-2.9877364795538597e-05,1.402438998222351,-0.01806640625,0.01025390625,1.4546836749812022e-16,0.0016752463113807107,-3.2948247040696875e-09,0.0017574258884700358,0.7735777176377949,0.7752384065388794
1624633135.648617,-9.470420089915346e-09,2.2037863838255527e-11,5.81,4.94,3.211816874681972e-06,-2.9877364795538597e-05,1.2804877758026123,-0.01171875,0.01318359375,1.4546836749812022e-16,0.0016752463113807107,-3.2948247040696875e-09,0.0017574258884700358,0.7735777176377949,0.7752384065388794
1624633135.648617,-9.470420089915346e-09,2.2037863838255527e-11,5.81,4.94,3.211816874681972e-06,-2.9877364795538597e-05,1.2804877758026123,-0.01171875,0.01318359375,1.4546836749812022e-16,0.0016752463113807107,-3.2948247040696875e-09,0.0017574258884700358,0.7735777176377949,0.7752384065388794
1624633135.648617,-9.470420089915346e-09,2.2037863838255527e-11,5.81,4.94,3.211816874681972e-06,-2.9877364795538597e-05,1.2804877758026123,-0.01171875,0.01318359375,1.4546836749812022e-16,0.0016752463113807107,-3.2948247040696875e-09,0.0017574258884700358,0.7735777176377949,0.7752384065388794
1624633135.648617,-9.470420089915346e-09,2.2037863838255527e-11,5.81,4.94,3.211816874681972e-06,-2.9877364795538597e-05,1.2804877758026123,-0.01171875,0.01318359375,1.4546836749812022e-16,0.0016752463113807107,-3.2021410568067727e-09,0.0016714374532183743,0.7735777176377949,0.7752274192290192
1624633135.708617,-9.156793791881733e-09,2.1466598111351366e-11,5.81,4.94,3.211816874681972e-06,-2.9877364795538597e-05,1.2804877758026123,-0.01171875,0.01318359375,1.6193460264424996e-16,0.0018433611807730035,-3.2021410568067727e-09,0.0016714374532183743,0.7735812143974856,0.7752274192290192
1624633135.708617,-9.156793791881733e-09,2.1466598111351366e-11,5.81,4.94,3.211816874681972e-06,-2.9877364795538597e-05,1.2804877758026123,-0.01171875,0.01318359375,1.6193460264424996e-16,0.0018433611807730035,-3.2021410568067727e-09,0.0016714374532183743,0.7735812143974856,0.7752274192290192
1624633135.708617,-9.156793791881733e-09,2.1466598111351366e-11,5.81,4.94,3.211816874681972e-06,-2.9877364795538597e-05,1.2804877758026123,-0.01171875,0.01318359375,1.6193460264424996e-16,0.0018433611807730035,-3.2021410568067727e-09,0.0016714374532183743,0.7735812143974856,0.7752274192290192
1624633135.708617,-9.156793791881733e-09,2.1466598111351366e-11,5.81,4.94,3.211816874681972e-06,-2.9877364795538597e-05,1.2804877758026123,-0.01171875,0.01318359375,1.6193460264424996e-16,0.0018433611807730035,-3.2021410568067727e-09,0.0016714374532183743,0.7735812143974856,0.7752274192290192
1624633135.708617,-9.156793791881733e-09,2.1466598111351366e-11,5.81,4.94,3.211816874681972e-06,-2.9877364795538597e-05,1.2804877758026123,-0.01171875,0.01318359375,1.6193460264424996e-16,0.0018433611807730035,-3.173296630371158e-09,0.0016876812349020328,0.7735812143974856,0.7752345288469389
1624633135.768305,-8.84109321820763e-09,2.0878547760335205e-11,5.82,4.95,3.211816874681972e-06,-2.9877364795538597e-05,1.3414634466171265,-0.0068359375,0.0107421875,-9.46957468522347e-17,0.0017281616379939148,-3.173296630371158e-09,0.0016876812349020328,0.7735779175208177,0.7752345288469389
1624633135.768305,-8.84109321820763e-09,2.0878547760335205e-11,5.82,4.95,3.211816874681972e-06,-2.9877364795538597e-05,1.3414634466171265,-0.0068359375,0.0107421875,-9.46957468522347e-17,0.0017281616379939148,-3.173296630371158e-09,0.0016876812349020328,0.7735779175208177,0.7752345288469389
1624633135.768305,-8.84109321820763e-09,2.0878547760335205e-11,5.82,4.95,3.292112069175346e-06,-3.0624298233306035e-05,1.3414634466171265,-0.0068359375,0.0107421875,-9.46957468522347e-17,0.0017281616379939148,-3.173296630371158e-09,0.0016876812349020328,0.7735779175208177,0.7752345288469389
1624633135.768305,-8.84109321820763e-09,2.0878547760335205e-11,5.82,4.95,3.292112069175346e-06,-3.0624298233306035e-05,1.3414634466171265,-0.0068359375,0.0107421875,-9.46957468522347e-17,0.0017281616379939148,-3.118266756552914e-09,0.001633471897184487,0.7735779175208177,0.7752361004102544
1624633135.768305,-8.84109321820763e-09,2.0878547760335205e-11,5.82,4.95,3.292112069175346e-06,-3.0624298233306035e-05,1.3414634466171265,-0.0068359375,0.0107421875,-9.46957468522347e-17,0.0017281616379939148,-3.118266756552914e-09,0.001633471897184487,0.7735779175208177,0.7752361004102544
1624633135.828305,-8.526760929186357e-09,2.0280347160558814e-11,5.82,4.95,3.292112069175346e-06,-3.0624298233306035e-05,1.3414634466171265,-0.0068359375,0.0107421875,2.693159125251606e-16,0.0018680798478742677,-3.118266756552914e-09,0.001633471897184487,0.7735831840428773,0.7752361004102544
1624633135.828305,-8.526760929186357e-09,2.0280347160558814e-11,5.82,4.95,3.292112069175346e-06,-3.0624298233306035e-05,1.3414634466171265,-0.0068359375,0.0107421875,2.693159125251606e-16,0.0018680798478742677,-3.118266756552914e-09,0.001633471897184487,0.7735831840428773,0.7752361004102544
1624633135.828305,-8.526760929186357e-09,2.0280347160558814e-11,5.82,4.95,3.292112069175346e-06,-3.0624298233306035e-05,1.3414634466171265,-0.0068359375,0.0107421875,2.693159125251606e-16,0.0018680798478742677,-3.118266756552914e-09,0.001633471897184487,0.7735831840428773,0.7752361004102544
1624633135.828305,-8.526760929186357e-09,2.0280347160558814e-11,5.82,4.95,3.211816874681972e-06,-2.9877364795538597e-05,1.3414634466171265,-0.0068359375,0.0107421875,2.693159125251606e-16,0.0018680798478742677,-3.118266756552914e-09,0.001633471897184487,0.7735831840428773,0.7752361004102544
1624633135.828305,-8.526760929186357e-09,2.0280347160558814e-11,5.81,4.95,3.211816874681972e-06,-2.9877364795538597e-05,1.3414634466171265,-0.0068359375,0.0107421875,2.693159125251606e-16,0.0018680798478742677,-3.048947489896134e-09,0.0016626797709621772,0.7735831840428773,0.7752396945372656
1624633135.828305,-8.301180368077908e-09,1.985104851178618e-11,5.81,4.95,3.211816874681972e-06,-2.9877364795538597e-05,1.3414634466171265,-0.0068359375,0.0107421875,2.693159125251606e-16,0.0018680798478742677,-3.048947489896134e-09,0.0016626797709621772,0.7735831840428773,0.7752396945372656
1624633135.828305,-8.301180368077908e-09,1.985104851178618e-11,5.81,4.95,3.211816874681972e-06,-2.9877364795538597e-05,1.402438998222351,-0.0029296875,0.015625,2.693159125251606e-16,0.0018680798478742677,-3.048947489896134e-09,0.0016626797709621772,0.7735831840428773,0.7752396945372656
1624633135.828305,-8.301180368077908e-09,1.985104851178618e-11,5.81,4.95,3.211816874681972e-06,-2.9877364795538597e-05,1.402438998222351,-0.0029296875,0.015625,2.693159125251606e-16,0.0018680798478742677,-3.048947489896134e-09,0.0016626797709621772,0.7735831840428773,0.7752396945372656
1624633135.828305,-8.301180368077908e-09,1.985104851178618e-11,5.81,4.95,3.211816874681972e-06,-2.9877364795538597e-05,1.402438998222351,-0.0029296875,0.015625,2.693159125251606e-16,0.0018680798478742677,-2.6185122600572695e-09,0.0016794987917078603,0.7735831840428773,0.7751543248453863
1624633135.828305,-8.301180368077908e-09,1.985104851178618e-11,5.81,4.95,3.211816874681972e-06,-2.9877364795538597e-05,1.402438998222351,-0.0029296875,0.015625,2.693159125251606e-16,0.0018680798478742677,-2.6185122600572695e-09,0.0016794987917078603,0.7735831840428773,0.7751543248453863
1624633135.910305,-8.033566414858801e-09,1.93346493081725e-11,5.81,4.95,3.211816874681972e-06,-2.9877364795538597e-05,1.402438998222351,-0.0029296875,0.015625,2.186020712706815e-16,0.0019141975712012823,-2.6185122600572695e-09,0.0016794987917078603,0.7736268740101706,0.7751543248453863
1624633135.910305,-8.033566414858801e-09,1.93346493081725e-11,5.81,4.95,3.211816874681972e-06,-2.9877364795538597e-05,1.402438998222351,-0.0029296875,0.015625,2.186020712706815e-16,0.0019141975712012823,-2.6185122600572695e-09,0.0016794987917078603,0.7736268740101706,0.7751543248453863
1624633135.910305,-8.033566414858801e-09,1.93346493081725e-11,5.81,4.95,3.211816874681972e-06,-2.9877364795538597e-05,1.402438998222351,-0.0029296875,0.015625,2.186020712706815e-16,0.0019141975712012823,-2.6185122600572695e-09,0.0016794987917078603,0.7736268740101706,0.7751543248453863
1624633135.910305,-8.033566414858801e-09,1.93346493081725e-11,5.81,4.95,3.211816874681972e-06,-2.9877364795538597e-05,1.402438998222351,-0.0029296875,0.015625,2.186020712706815e-16,0.0019141975712012823,-2.788772844055481e-09,0.0017475797264144897,0.7736268740101706,0.7752334654517865
1624633135.910305,-8.033566414858801e-09,1.93346493081725e-11,5.81,4.96,3.211816874681972e-06,-2.9877364795538597e-05,1.402438998222351,-0.0029296875,0.015625,2.186020712706815e-16,0.0019141975712012823,-2.788772844055481e-09,0.0017475797264144897,0.7736268740101706,0.7752334654517865
1624633135.9483051,-7.785356357560671e-09,1.8839788550644922e-11,5.81,4.96,3.292112069175346e-06,-3.0624298233306035e-05,1.402438998222351,-0.0029296875,0.015625,6.510792116994326e-17,0.0018361740314419648,-2.788772844055481e-09,0.0017475797264144897,0.7735831123646134,0.7752334654517865
1624633135.9483051,-7.785356357560671e-09,1.8839788550644922e-11,5.81,4.96,3.292112069175346e-06,-3.0624298233306035e-05,1.2804877758026123,-0.0126953125,0.00830078125,6.510792116994326e-17,0.0018361740314419648,-2.788772844055481e-09,0.0017475797264144897,0.7735831123646134,0.7752334654517865
1624633135.9483051,-7.785356357560671e-09,1.8839788550644922e-11,5.81,4.96,3.292112069175346e-06,-3.0624298233306035e-05,1.2804877758026123,-0.0126953125,0.00830078125,6.510792116994326e-17,0.0018361740314419648,-2.6210907216690313e-09,0.0017231274423533838,0.7735831123646134,0.7752058376346682
1624633135.9483051,-7.785356357560671e-09,1.8839788550644922e-11,5.81,4.96,3.292112069175346e-06,-3.0624298233306035e-05,1.2804877758026123,-0.0126953125,0.00830078125,6.510792116994326e-17,0.0018361740314419648,-2.6210907216690313e-09,0.0017231274423533838,0.7735831123646134,0.7752058376346682
1624633135.9483051,-7.785356357560671e-09,1.8839788550644922e-11,5.81,4.96,3.292112069175346e-06,-3.0624298233306035e-05,1.2804877758026123,-0.0126953125,0.00830078125,6.510792116994326e-17,0.0018361740314419648,-2.6210907216690313e-09,0.0017231274423533838,0.7735831123646134,0.7752058376346682
1624633136.014305,-7.523366637183477e-09,1.830863586734683e-11,5.81,4.96,3.292112069175346e-06,-3.0624298233306035e-05,1.2804877758026123,-0.0126953125,0.00830078125,1.9543099069831458e-16,0.0018989458732770778,-2.6210907216690313e-09,0.0017231274423533838,0.7735957312429874,0.7752058376346682
1624633136.014305,-7.523366637183477e-09,1.830863586734683e-11,5.81,4.96,3.211816874681972e-06,-2.9877364795538597e-05,1.2804877758026123,-0.0126953125,0.00830078125,1.9543099069831458e-16,0.0018989458732770778,-2.6210907216690313e-09,0.0017231274423533838,0.7735957312429874,0.7752058376346682
1624633136.014305,-7.523366637183477e-09,1.830863586734683e-11,5.81,4.96,3.211816874681972e-06,-2.9877364795538597e-05,1.2804877758026123,-0.0126953125,0.00830078125,1.9543099069831458e-16,0.0018989458732770778,-2.6210907216690313e-09,0.0017231274423533838,0.7735957312429874,0.7752058376346682
1624633136.014305,-7.523366637183477e-09,1.830863586734683e-11,5.81,4.96,3.211816874681972e-06,-2.9877364795538597e-05,1.2804877758026123,-0.0126953125,0.00830078125,1.9543099069831458e-16,0.0018989458732770778,-2.63547606444648e-09,0.0017473639633745872,0.7735957312429874,0.7752369260878372
1624633136.014305,-7.523366637183477e-09,1.830863586734683e-11,5.82,4.96,3.211816874681972e-06,-2.9877364795538597e-05,1.2804877758026123,-0.0126953125,0.00830078125,0.021236330764143094,0.0017909637325837762,-2.63547606444648e-09,0.0017473639633745872,0.773581300851916,0.7752369260878372
1624633136.068305,0.0017912176490118552,-7.547248234798969e-11,5.82,4.96,3.211816874681972e-06,-2.9877364795538597e-05,1.4634146690368652,-0.009765625,0.0146484375,0.021236330764143094,0.0017909637325837762,-2.63547606444648e-09,0.0017473639633745872,0.773581300851916,0.7752369260878372
1624633136.068305,0.0017912176490118552,-7.547248234798969e-11,5.82,4.96,3.211816874681972e-06,-2.9877364795538597e-05,1.4634146690368652,-0.009765625,0.0146484375,0.021236330764143094,0.0017909637325837762,-2.63547606444648e-09,0.0017473639633745872,0.773581300851916,0.7752369260878372
1624633136.068305,0.0017912176490118552,-7.547248234798969e-11,5.82,4.96,0.01474088616669178,-0.08224587142467499,1.4634146690368652,-0.009765625,0.0146484375,0.021236330764143094,0.0017909637325837762,0.0034161791969476714,0.0016951836505624748,0.773581300851916,0.7752315007518621
1624633136.068305,0.0017912176490118552,-7.547248234798969e-11,5.82,4.96,0.01474088616669178,-0.08224587142467499,1.4634146690368652,-0.009765625,0.0146484375,0.021236330764143094,0.0017909637325837762,0.0034161791969476714,0.0016951836505624748,0.773581300851916,0.7752315007518621
1624633136.068305,0.0017912176490118552,-7.547248234798969e-11,5.82,4.96,0.01474088616669178,-0.08224587142467499,1.4634146690368652,-0.009765625,0.0146484375,0.021236330764143094,0.0017909637325837762,0.0034161791969476714,0.0016951836505624748,0.773581300851916,0.7752315007518621
1624633136.1283052,0.005164237032480775,5.357270039594025e-08,5.82,4.96,0.01474088616669178,-0.08224587142467499,1.4634146690368652,-0.009765625,0.0146484375,0.042848283667599366,0.0017435096007141946,0.0034161791969476714,0.0016951836505624748,0.7719187616797962,0.7752315007518621
1624633136.1283052,0.005164237032480775,5.357270039594025e-08,5.82,4.96,0.01474088616669178,-0.08224587142467499,1.4634146690368652,-0.009765625,0.0146484375,0.042848283667599366,0.0017435096007141946,0.009963300419288952,0.0015815559631572784,0.7719187616797962,0.775135083295444
1624633136.1283052,0.005164237032480775,5.357270039594025e-08,5.82,4.96,0.01474088616669178,-0.08224587142467499,1.4634146690368652,-0.009765625,0.0146484375,0.042848283667599366,0.0017435096007141946,0.009963300419288952,0.0015815559631572784,0.7719187616797962,0.775135083295444
1624633136.1283052,0.005164237032480775,5.357270039594025e-08,5.82,4.96,0.07883338630199432,-0.033257242292165756,1.4634146690368652,-0.009765625,0.0146484375,0.042848283667599366,0.0017435096007141946,0.009963300419288952,0.0015815559631572784,0.7719187616797962,0.775135083295444
1624633136.1283052,0.005164237032480775,5.357270039594025e-08,5.82,4.96,0.07883338630199432,-0.033257242292165756,1.4634146690368652,-0.009765625,0.0146484375,0.042848283667599366,0.0017435096007141946,0.009963300419288952,0.0015815559631572784,0.7719187616797962,0.775135083295444
1624633136.1283052,0.007587998283059136,9.219626363807592e-08,5.82,4.96,0.07883338630199432,-0.033257242292165756,5.97560977935791,-0.14892578125,-0.12890625,0.042848283667599366,0.0017435096007141946,0.009963300419288952,0.0015815559631572784,0.7719187616797962,0.775135083295444
1624633136.1283052,0.007587998283059136,9.219626363807592e-08,5.82,4.96,0.07883338630199432,-0.033257242292165756,5.97560977935791,-0.14892578125,-0.12890625,0.042848283667599366,0.0017435096007141946,0.009963300419288952,0.0015815559631572784,0.7719187616797962,0.775135083295444
1624633136.1283052,0.007587998283059136,9.219626363807592e-08,5.82,4.96,0.07883338630199432,-0.033257242292165756,5.97560977935791,-0.14892578125,-0.12890625,0.042848283667599366,0.0017435096007141946,0.014590658618187813,0.0015470629747308064,0.7719187616797962,0.7749630463920532
1624633136.1283052,0.007587998283059136,9.219626363807592e-08,5.82,4.96,0.07883338630199432,-0.033257242292165756,5.97560977935791,-0.14892578125,-0.12890625,0.042848283667599366,0.0017435096007141946,0.014590658618187813,0.0015470629747308064,0.7719187616797962,0.7749630463920532
1624633136.1283052,0.007587998283059136,9.219626363807592e-08,5.82,4.96,0.17259199917316437,5.020070602768101e-06,5.97560977935791,-0.14892578125,-0.12890625,0.06955910253609318,-0.00017768545127148407,0.014590658618187813,0.0015470629747308064,0.7664976545703329,0.7749630463920532
1624633136.202305,0.011933378002319245,-9.22657037758041e-07,5.82,4.96,0.17259199917316437,5.020070602768101e-06,5.97560977935791,-0.14892578125,-0.12890625,0.06955910253609318,-0.00017768545127148407,0.014590658618187813,0.0015470629747308064,0.7664976545703329,0.7749630463920532
1624633136.202305,0.011933378002319245,-9.22657037758041e-07,5.82,4.96,0.17259199917316437,5.020070602768101e-06,5.97560977935791,-0.14892578125,-0.12890625,0.06955910253609318,-0.00017768545127148407,0.014590658618187813,0.0015470629747308064,0.7664976545703329,0.7749630463920532
1624633136.202305,0.011933378002319245,-9.22657037758041e-07,5.82,4.96,0.17259199917316437,5.020070602768101e-06,5.97560977935791,-0.14892578125,-0.12890625,0.06955910253609318,-0.00017768545127148407,0.014590658618187813,0.0015470629747308064,0.7664976545703329,0.7749630463920532
1624633136.202305,0.011933378002319245,-9.22657037758041e-07,5.82,4.96,0.17259199917316437,5.020070602768101e-06,5.97560977935791,-0.14892578125,-0.12890625,0.06955910253609318,-0.00017768545127148407,0.014590658618187813,0.0015470629747308064,0.7664976545703329,0.7749630463920532
1624633136.248305,0.017064286510570542,-4.432645537121094e-06,5.82,4.95,0.17259199917316437,5.020070602768101e-06,5.97560977935791,-0.14892578125,-0.12890625,0.08773862244992472,-0.0002936336911928505,0.014590658618187813,0.0015470629747308064,0.7637520737590582,0.7749630463920532
1624633136.248305,0.017064286510570542,-4.432645537121094e-06,5.82,4.95,0.29399654269218445,-4.649918628274463e-05,-0.3658536672592163,0.04541015625,-0.2080078125,0.08773862244992472,-0.0002936336911928505,0.03375416860728172,-7.69487694070887e-05,0.7637520737590582,0.7740492355425508
1624633136.248305,0.017064286510570542,-4.432645537121094e-06,5.82,4.95,0.29399654269218445,-4.649918628274463e-05,-0.3658536672592163,0.04541015625,-0.2080078125,0.08773862244992472,-0.0002936336911928505,0.03375416860728172,-7.69487694070887e-05,0.7637520737590582,0.7740492355425508
1624633136.248305,0.017064286510570542,-4.432645537121094e-06,5.82,4.95,0.29399654269218445,-4.649918628274463e-05,-0.3658536672592163,0.04541015625,-0.2080078125,0.08773862244992472,-0.0002936336911928505,0.03375416860728172,-7.69487694070887e-05,0.7637520737590582,0.7740492355425508
1624633136.248305,0.017064286510570542,-4.432645537121094e-06,5.82,4.95,0.29399654269218445,-4.649918628274463e-05,-0.3658536672592163,0.04541015625,-0.2080078125,0.08773862244992472,-0.0002936336911928505,0.03375416860728172,-7.69487694070887e-05,0.7637520737590582,0.7740492355425508
1624633136.248305,0.017064286510570542,-4.432645537121094e-06,5.82,4.95,0.29399654269218445,-4.649918628274463e-05,-0.3658536672592163,0.04541015625,-0.2080078125,0.11338611705834369,0.01197390161033294,0.03375416860728172,-7.69487694070887e-05,0.7634904137643934,0.7740492355425508
1624633136.308305,0.0235872273533406,-1.051236493066064e-05,5.82,4.95,0.29399654269218445,-4.649918628274463e-05,-0.3658536672592163,0.04541015625,-0.2080078125,0.11338611705834369,0.01197390161033294,0.03375416860728172,-7.69487694070887e-05,0.7634904137643934,0.7740492355425508
1624633136.308305,0.0235872273533406,-1.051236493066064e-05,5.82,4.95,0.3937744200229645,0.016889339312911034,-0.3658536672592163,0.04541015625,-0.2080078125,0.11338611705834369,0.01197390161033294,0.04719960467880907,0.0048465299892793455,0.7634904137643934,0.7737635170840661
1624633136.308305,0.0235872273533406,-1.051236493066064e-05,5.82,4.95,0.3937744200229645,0.016889339312911034,-0.3658536672592163,0.04541015625,-0.2080078125,0.11338611705834369,0.01197390161033294,0.04719960467880907,0.0048465299892793455,0.7634904137643934,0.7737635170840661
1624633136.308305,0.0235872273533406,-1.051236493066064e-05,5.82,4.95,0.3937744200229645,0.016889339312911034,-0.3658536672592163,0.04541015625,-0.2080078125,0.11338611705834369,0.01197390161033294,0.04719960467880907,0.0048465299892793455,0.7634904137643934,0.7737635170840661
1624633136.368305,0.02954166610052969,-1.732828224117918e-05,5.82,4.95,0.3937744200229645,0.016889339312911034,-0.3658536672592163,0.04541015625,-0.2080078125,0.11884889117254153,0.01124948483871844,0.04719960467880907,0.0048465299892793455,0.7640434548636932,0.7737635170840661
1624633136.368305,0.02954166610052969,-1.732828224117918e-05,5.82,4.93,0.3937744200229645,0.016889339312911034,-5.182927131652832,0.05517578125,-0.2744140625,0.11884889117254153,0.01124948483871844,0.059963526262976845,0.00680514905167761,0.7640434548636932,0.7735911892527881
1624633136.368305,0.02954166610052969,-1.732828224117918e-05,5.82,4.93,0.3937744200229645,0.016889339312911034,-5.182927131652832,0.05517578125,-0.2744140625,0.11884889117254153,0.01124948483871844,0.059963526262976845,0.00680514905167761,0.7640434548636932,0.7735911892527881
1624633136.368305,0.02954166610052969,-1.732828224117918e-05,5.82,4.93,0.4721270501613617,0.04892574995756149,-5.182927131652832,0.05517578125,-0.2744140625,0.11884889117254153,0.01124948483871844,0.059963526262976845,0.00680514905167761,0.7640434548636932,0.7735911892527881
1624633136.368305,0.02954166610052969,-1.732828224117918e-05,5.82,4.93,0.4721270501613617,0.04892574995756149,-5.182927131652832,0.05517578125,-0.2744140625,0.11884889117254153,0.01124948483871844,0.059963526262976845,0.00680514905167761,0.7640434548636932,0.7735911892527881
1624633136.4283051,0.03541613456808986,-2.2665752841736414e-05,5.82,4.93,0.4721270501613617,0.04892574995756149,-5.182927131652832,0.05517578125,-0.2744140625,0.12997871867265967,0.022319402959784757,0.059963526262976845,0.00680514905167761,0.7659754586703666,0.7735911892527881
1624633136.4283051,0.03541613456808986,-2.2665752841736414e-05,5.82,4.93,0.4721270501613617,0.04892574995756149,-5.182927131652832,0.05517578125,-0.2744140625,0.12997871867265967,0.022319402959784757,0.059963526262976845,0.00680514905167761,0.7659754586703666,0.7735911892527881
1624633136.4283051,0.03541613456808986,-2.2665752841736414e-05,5.82,4.93,0.4721270501613617,0.04892574995756149,-5.182927131652832,0.05517578125,-0.2744140625,0.12997871867265967,0.022319402959784757,0.059963526262976845,0.00680514905167761,0.7659754586703666,0.7735911892527881
1624633136.4283051,0.03541613456808986,-2.2665752841736414e-05,5.82,4.93,0.4721270501613617,0.04892574995756149,-5.182927131652832,0.05517578125,-0.2744140625,0.12997871867265967,0.022319402959784757,0.059963526262976845,0.00680514905167761,0.7659754586703666,0.7735911892527881
1624633136.4283051,0.03541613456808986,-2.2665752841736414e-05,5.82,4.93,0.5327621698379517,0.03214641660451889,-5.182927131652832,0.05517578125,-0.2744140625,0.12997871867265967,0.022319402959784757,0.07294673545754697,0.01316828546358369,0.7659754586703666,0.773929607905251
1624633136.4283051,0.039632853131227,-2.6481665233424064e-05,5.82,4.91,0.5327621698379517,0.03214641660451889,-5.182927131652832,0.05517578125,-0.2744140625,0.12997871867265967,0.022319402959784757,0.07294673545754697,0.01316828546358369,0.7659754586703666,0.773929607905251
1624633136.4283051,0.039632853131227,-2.6481665233424064e-05,5.82,4.91,0.5327621698379517,0.03214641660451889,3.7804877758026123,-0.12158203125,-0.0390625,0.12997871867265967,0.022319402959784757,0.07294673545754697,0.01316828546358369,0.7659754586703666,0.773929607905251
1624633136.4283051,0.039632853131227,-2.6481665233424064e-05,5.82,4.91,0.5327621698379517,0.03214641660451889,3.7804877758026123,-0.12158203125,-0.0390625,0.12997871867265967,0.022319402959784757,0.07294673545754697,0.01316828546358369,0.7659754586703666,0.773929607905251
1624633136.4283051,0.039632853131227,-2.6481665233424064e-05,5.82,4.91,0.5327621698379517,0.03214641660451889,3.7804877758026123,-0.12158203125,-0.0390625,0.12997871867265967,0.022319402959784757,0.07294673545754697,0.01316828546358369,0.7659754586703666,0.773929607905251
1624633136.4283051,0.039632853131227,-2.6481665233424064e-05,5.82,4.91,0.5428704619407654,0.015286585316061974,3.7804877758026123,-0.12158203125,-0.0390625,0.12997871867265967,0.022319402959784757,0.08099382659554374,0.015709080791971964,0.7659754586703666,0.7736207250518893
1624633136.514305,0.04424582763703628,-2.6228965183434417e-05,5.82,4.91,0.5428704619407654,0.015286585316061974,3.7804877758026123,-0.12158203125,-0.0390625,0.14094385473798035,0.025324966805521414,0.08099382659554374,0.015709080791971964,0.7689403498465209,0.7736207250518893
1624633136.514305,0.04424582763703628,-2.6228965183434417e-05,5.82,4.91,0.5428704619407654,0.015286585316061974,3.7804877758026123,-0.12158203125,-0.0390625,0.14094385473798035,0.025324966805521414,0.08099382659554374,0.015709080791971964,0.7689403498465209,0.7736207250518893
1624633136.514305,0.04424582763703628,-2.6228965183434417e-05,5.82,4.91,0.5428704619407654,0.015286585316061974,3.7804877758026123,-0.12158203125,-0.0390625,0.14094385473798035,0.025324966805521414,0.08099382659554374,0.015709080791971964,0.7689403498465209,0.7736207250518893
1624633136.514305,0.04424582763703628,-2.6228965183434417e-05,5.82,4.91,0.5428704619407654,0.015286585316061974,3.7804877758026123,-0.12158203125,-0.0390625,0.14094385473798035,0.025324966805521414,0.08099382659554374,0.015709080791971964,0.7689403498465209,0.7736207250518893
1624633136.514305,0.04424582763703628,-2.6228965183434417e-05,5.81,4.89,0.5299860835075378,0.03519003093242645,3.7804877758026123,-0.12158203125,-0.0390625,0.16130710740156814,0.024474992587118386,0.09320609882726558,0.01992087234134028,0.7700123888370555,0.7749278732973365
1624633136.548305,0.049572051290895494,-2.1628445939880614e-05,5.81,4.89,0.5299860835075378,0.03519003093242645,3.7804877758026123,-0.12158203125,-0.0390625,0.16130710740156814,0.024474992587118386,0.09320609882726558,0.01992087234134028,0.7700123888370555,0.7749278732973365
1624633136.548305,0.049572051290895494,-2.1628445939880614e-05,5.81,4.89,0.5299860835075378,0.03519003093242645,-2.2560975551605225,-0.1083984375,0.2236328125,0.16130710740156814,0.024474992587118386,0.09320609882726558,0.01992087234134028,0.7700123888370555,0.7749278732973365
1624633136.548305,0.049572051290895494,-2.1628445939880614e-05,5.81,4.89,0.5299860835075378,0.03519003093242645,-2.2560975551605225,-0.1083984375,0.2236328125,0.16130710740156814,0.024474992587118386,0.09320609882726558,0.01992087234134028,0.7700123888370555,0.7749278732973365
1624633136.548305,0.049572051290895494,-2.1628445939880614e-05,5.81,4.89,0.5299860835075378,0.03519003093242645,-2.2560975551605225,-0.1083984375,0.2236328125,0.16130710740156814,0.024474992587118386,0.09320609882726558,0.01992087234134028,0.7700123888370555,0.7749278732973365
1624633136.548305,0.049572051290895494,-2.1628445939880614e-05,5.81,4.89,0.5299860835075378,0.03519003093242645,-2.2560975551605225,-0.1083984375,0.2236328125,0.16130710740156814,0.024474992587118386,0.1048651600165131,0.021346452004127357,0.7700123888370555,0.7752662072039008
1624633136.608305,0.05523431623418266,-1.4377686483101167e-05,5.81,4.89,0.5299860835075378,0.03519003093242645,-2.2560975551605225,-0.1083984375,0.2236328125,0.1763743510532499,0.023269031213183588,0.1048651600165131,0.021346452004127357,0.7713058532054982,0.7752662072039008
1624633136.608305,0.05523431623418266,-1.4377686483101167e-05,5.81,4.89,0.5299860835075378,0.03519003093242645,-2.2560975551605225,-0.1083984375,0.2236328125,0.1763743510532499,0.023269031213183588,0.1048651600165131,0.021346452004127357,0.7713058532054982,0.7752662072039008
1624633136.608305,0.05523431623418266,-1.4377686483101167e-05,5.81,4.89,0.5058485865592957,-4.70778759336099e-05,-2.2560975551605225,-0.1083984375,0.2236328125,0.1763743510532499,0.023269031213183588,0.1048651600165131,0.021346452004127357,0.7713058532054982,0.7752662072039008
1624633136.608305,0.05523431623418266,-1.4377686483101167e-05,5.81,4.89,0.5058485865592957,-4.70778759336099e-05,-2.2560975551605225,-0.1083984375,0.2236328125,0.1763743510532499,0.023269031213183588,0.11863116475999509,0.022040253670479917,0.7713058532054982,0.7761395937716008
1624633136.608305,0.05523431623418266,-1.4377686483101167e-05,5.81,4.89,0.5058485865592957,-4.70778759336099e-05,-2.2560975551605225,-0.1083984375,0.2236328125,0.1763743510532499,0.023269031213183588,0.11863116475999509,0.022040253670479917,0.7713058532054982,0.7761395937716008
1624633136.6683052,0.06093024528239797,-5.820327852701724e-06,5.81,4.85,0.5058485865592957,-4.70778759336099e-05,-1.5243902206420898,-0.0146484375,0.4521484375,0.18933779357523456,0.02185326761566536,0.11863116475999509,0.022040253670479917,0.7721969332695341,0.7761395937716008
1624633136.6683052,0.06093024528239797,-5.820327852701724e-06,5.81,4.85,0.5058485865592957,-4.70778759336099e-05,-1.5243902206420898,-0.0146484375,0.4521484375,0.18933779357523456,0.02185326761566536,0.11863116475999509,0.022040253670479917,0.7721969332695341,0.7761395937716008
1624633136.6683052,0.06093024528239797,-5.820327852701724e-06,5.81,4.85,0.49926599860191345,0.04960985481739044,-1.5243902206420898,-0.0146484375,0.4521484375,0.18933779357523456,0.02185326761566536,0.11863116475999509,0.022040253670479917,0.7721969332695341,0.7761395937716008
1624633136.6683052,0.06093024528239797,-5.820327852701724e-06,5.81,4.85,0.49926599860191345,0.04960985481739044,-1.5243902206420898,-0.0146484375,0.4521484375,0.18933779357523456,0.02185326761566536,0.1328073165960526,0.021784990319398668,0.7721969332695341,0.7769353529100972
1624633136.6683052,0.06093024528239797,-5.820327852701724e-06,5.81,4.85,0.49926599860191345,0.04960985481739044,-1.5243902206420898,-0.0146484375,0.4521484375,0.18933779357523456,0.02185326761566536,0.1328073165960526,0.021784990319398668,0.7721969332695341,0.7769353529100972
1624633136.702305,0.064662828457114,8.618268668462993e-07,5.81,4.85,0.49926599860191345,0.04960985481739044,-1.5243902206420898,-0.0146484375,0.4521484375,0.18290032360839747,0.020449196790600758,0.1328073165960526,0.021784990319398668,0.7728783911282144,0.7769353529100972
1624633136.702305,0.064662828457114,8.618268668462993e-07,5.81,4.85,0.49926599860191345,0.04960985481739044,-1.5243902206420898,-0.0146484375,0.4521484375,0.18290032360839747,0.020449196790600758,0.1328073165960526,0.021784990319398668,0.7728783911282144,0.7769353529100972
1624633136.702305,0.064662828457114,8.618268668462993e-07,5.81,4.85,0.49926599860191345,0.04960985481739044,-1.5243902206420898,-0.0146484375,0.4521484375,0.18290032360839747,0.020449196790600758,0.14199112950160214,0.021148976204777008,0.7728783911282144,0.7773448809752457
1624633136.702305,0.064662828457114,8.618268668462993e-07,5.81,4.85,0.509608268737793,-2.8101572752348147e-05,-1.5243902206420898,-0.0146484375,0.4521484375,0.18290032360839747,0.020449196790600758,0.14199112950160214,0.021148976204777008,0.7728783911282144,0.7773448809752457
1624633136.702305,0.064662828457114,8.618268668462993e-07,5.81,4.85,0.509608268737793,-2.8101572752348147e-05,-1.5243902206420898,-0.0146484375,0.4521484375,0.18290032360839747,0.020449196790600758,0.14199112950160214,0.021148976204777008,0.7728783911282144,0.7773448809752457
1624633136.728305,0.06895094094144237,7.528517364006557e-06,5.8,4.82,0.509608268737793,-2.8101572752348147e-05,1.4634146690368652,0.1650390625,-0.1787109375,0.2002036968239466,0.019928077691510216,0.14199112950160214,0.021148976204777008,0.7736480706954684,0.7773448809752457
1624633136.728305,0.06895094094144237,7.528517364006557e-06,5.8,4.82,0.509608268737793,-2.8101572752348147e-05,1.4634146690368652,0.1650390625,-0.1787109375,0.2002036968239466,0.019928077691510216,0.14199112950160214,0.021148976204777008,0.7736480706954684,0.7773448809752457
1624633136.728305,0.06895094094144237,7.528517364006557e-06,5.8,4.82,0.509608268737793,-2.8101572752348147e-05,1.4634146690368652,0.1650390625,-0.1787109375,0.2002036968239466,0.019928077691510216,0.14199112950160214,0.021148976204777008,0.7736480706954684,0.7773448809752457
1624633136.728305,0.06895094094144237,7.528517364006557e-06,5.8,4.82,0.509608268737793,-2.8101572752348147e-05,1.4634146690368652,0.1650390625,-0.1787109375,0.2002036968239466,0.019928077691510216,0.1518305033965078,0.020636741407040166,0.7736480706954684,0.7774189008808531
1624633136.728305,0.06895094094144237,7.528517364006557e-06,5.8,4.82,0.4960581362247467,-0.016390517354011536,1.4634146690368652,0.1650390625,-0.1787109375,0.2002036968239466,0.019928077691510216,0.1518305033965078,0.020636741407040166,0.7736480706954684,0.7774189008808531
1624633136.8063052,0.07293207695373394,1.4725445335891433e-05,5.8,4.82,0.4960581362247467,-0.016390517354011536,1.4634146690368652,0.1650390625,-0.1787109375,0.20576969447110507,0.01823798625734464,0.1518305033965078,0.020636741407040166,0.7745741882562925,0.7774189008808531
1624633136.8063052,0.07293207695373394,1.4725445335891433e-05,5.8,4.82,0.4960581362247467,-0.016390517354011536,1.4634146690368652,0.1650390625,-0.1787109375,0.20576969447110507,0.01823798625734464,0.1518305033965078,0.020636741407040166,0.7745741882562925,0.7774189008808531
1624633136.8063052,0.07293207695373394,1.4725445335891433e-05,5.8,4.82,0.4960581362247467,-0.016390517354011536,1.4634146690368652,0.1650390625,-0.1787109375,0.20576969447110507,0.01823798625734464,0.1518305033965078,0.020636741407040166,0.7745741882562925,0.7774189008808531
1624633136.8063052,0.07293207695373394,1.4725445335891433e-05,5.8,4.82,0.4960581362247467,-0.016390517354011536,1.4634146690368652,0.1650390625,-0.1787109375,0.20576969447110507,0.01823798625734464,0.16478727814324506,0.01945736381133162,0.7745741882562925,0.7785320394183917
1624633136.8063052,0.07293207695373394,1.4725445335891433e-05,5.8,4.82,0.4960581362247467,-0.016390517354011536,1.4634146690368652,0.1650390625,-0.1787109375,0.20576969447110507,0.01823798625734464,0.16478727814324506,0.01945736381133162,0.7745741882562925,0.7785320394183917
