time,la_x,la_y,uwb_x,uwb_y,vel_linear_x,vel_angular_z,mpu_ang_vel_z,mpu_linear_acc_x,mpu_linear_acc_y,odom_linear_x,odom_angular_z,odom_filtered_linear_x,odom_filtered_angular_z,odom_yaw,odom_filtered_yaw,cmd_linear_x,cmd_angular_z,var_x,var_y,var_xvel,var_yvel,vel_linear_y,odom_linear_y,odom_filtered_linear_y,cmd_linear_y
1626093724.207733,-6.248984453810852e-15,2.568268194100203e-16,0.0,0.0,,,,,,,,,,,,,,,,,,,,,
1626093724.273733,-2.906175135807918e-14,2.620476550437244e-16,5.72,4.89,1.087076678674137e-10,1.0112340964596456e-09,1.2195122241973877,-0.0009765625,0.0126953125,4.864569961285598e-11,0.0015604345325632375,4.870147812255677e-11,0.0013715118212261502,7.494278030422331e-05,0.0012985583521267748,,,1.3844953426167803,1.3844953426167805,0.010467775673881012,0.010467775673881014,0.0,-6.054082566527457e-15,-6.111896670358396e-15,
1626093724.3277328,-2.640492319633382e-14,2.6619731763140895e-16,5.7,4.9,1.0879065009961053e-10,1.0120060345286674e-09,1.2804877758026123,-0.005859375,0.00732421875,4.865999029212961e-11,0.001586302568643635,4.864739987622559e-11,0.0014786405722747142,7.689014117092708e-05,0.0013162441987955155,,,1.3852306137579564,1.3852306137579566,0.010296334300644349,0.010296334300644349,0.0,-6.117112034706645e-15,-6.04892110908797e-15,
1626093724.387733,-2.336013708744522e-14,2.706092742687264e-16,5.71,4.91,1.0879065009961053e-10,1.0120060345286674e-09,1.2804877758026123,-0.013671875,0.00439453125,4.869426306832048e-11,0.001097531030317279,4.8611286960024384e-11,0.001143277389958147,5.5330998118949146e-05,0.0013002829910258758,,,1.3861899640477064,1.3861899640477067,0.010260405215894466,0.010260405215894466,0.0,-6.177336682953129e-15,-6.090692831264144e-15,
1626093724.447733,-2.2470765863159014e-14,2.7535373357184883e-16,5.73,4.94,1.087076678674137e-10,1.0112340964596456e-09,1.2195122241973877,-0.01123046875,0.00341796875,4.871247270063417e-11,0.0016373448650208692,4.863956588927042e-11,0.0013112771019047936,7.5643105819932e-05,0.0012609327170415856,,,1.3867084554654105,1.3867084554654108,0.009785473528401634,0.009785473528401634,0.0,-6.051691704561688e-15,-6.086671373119628e-15,
1626093724.509168,-2.8256301709197403e-14,2.7870021246615923e-16,5.71,4.93,1.087076678674137e-10,1.0112340964596456e-09,1.2804877758026123,-0.0029296875,0.0048828125,4.871218362572016e-11,0.0015422102699299218,4.8682635108051776e-11,0.0015028985491016653,7.477098239794086e-05,0.0012620881872710116,,,1.3874499521636507,1.387449952163651,0.009435091894204535,0.009435091894204531,0.0,-6.093442265742673e-15,-6.0639857203417765e-15,
1626093724.5691679,-3.833153214432694e-14,2.848094017483712e-16,5.74,4.9,1.087076678674137e-10,1.0112340964596456e-09,1.2195122241973877,-0.00244140625,0.0087890625,4.873165377038982e-11,0.0016458482503201944,4.8702158999685946e-11,0.0015650523691761037,8.072257311045176e-05,0.0013330170738312694,,,1.3891532619062776,1.3891532619062779,0.00895379121965505,0.00895379121965505,0.0,-6.36443653264938e-15,-6.231069373307028e-15,
1626093724.629168,-4.521740968352266e-14,2.869882599233197e-16,5.74,4.91,1.087076678674137e-10,1.0112340964596456e-09,1.2804877758026123,-0.01953125,0.00439453125,4.8741001626154974e-11,0.0016368163396782748,4.871384218633196e-11,0.0014736250692655665,7.822242087038525e-05,0.0013663213475068891,,,1.3902720808285882,1.3902720808285884,0.009527493774863227,0.009527493774863227,0.0,-6.458751460883022e-15,-6.364630252299647e-15,
1626093724.689168,-4.832415741131715e-14,2.846157753456159e-16,5.73,4.9,1.0879065009961053e-10,1.0120060345286674e-09,1.3414634466171265,-0.0107421875,0.00927734375,4.876229615475624e-11,0.001495561876485191,4.8692680614933865e-11,0.0014395305766135708,7.374466152502863e-05,0.001419113713659212,0.5,0.0,1.3913831748167897,1.39138317481679,0.010542132138996881,0.010542132138996877,0.0,-6.5514824239455116e-15,-6.470765332221981e-15,0.0
1626093724.749168,-5.1461922461636495e-14,2.8022991810594175e-16,5.74,4.9,0.21185706555843353,5.162391403246147e-07,0.7317073345184326,0.14794921875,-0.15771484375,0.09307880582109104,-0.0019279563227536493,0.03230037058380615,-0.0004025908251759937,0.006185042958614821,0.002041766856871264,0.5,0.0,1.3921184860006202,1.3921184868873189,0.010303806033495164,0.01030380860972477,0.0,2.9147637194201473e-05,7.031788735854427e-06,0.0
1626093724.8091679,-5.0106770953732476e-14,2.708682483142607e-16,5.74,4.83,0.5514087677001953,-0.016502371057868004,-4.45121955871582,-0.09326171875,-0.537109375,0.141148901548677,0.010541634634656185,0.0859872058668118,0.0051978674730928905,0.002279430226735053,0.002835370475457252,0.5,0.0,1.392895419171434,1.3928954564881937,0.010090115186165306,0.010090150621547183,0.0,-0.00010548580027253411,-1.6296914668040044e-05,0.0
1626093724.879168,-8.745293036458704e-14,2.5720361409185145e-16,5.77,4.7,0.5121764540672302,-0.016487453132867813,1.585365891456604,-0.02978515625,0.12109375,0.2291099994548614,0.009894931500687478,0.201379797570646,0.00735002041818222,0.0025748954438007117,0.003890491854611235,0.5,0.0,1.3948766788502487,1.3948776157034564,0.009434335098995914,0.009434635376231246,0.0,-0.00016617834126233356,-0.00013969618527117365,0.0
1626093724.929168,-7.927874579061534e-14,2.4751117612953516e-16,5.77,4.6,0.22754894196987152,8.520870323991403e-06,1.9512195587158203,-0.1748046875,0.349609375,0.23876230723922057,0.012013754785220808,0.23482349505728461,0.009767021838077237,0.001998525698818005,0.0035573863287107674,0.5,0.0,1.3961778538708631,1.3961801479188527,0.008963642341934882,0.008964172662185367,0.0,-0.00018237764666264252,-0.00017263247949897127,0.0
1626093724.989168,-6.845079264171569e-14,2.3397576894672887e-16,5.78,4.58,9.635393594109587e-10,8.963156439278919e-09,1.4634146690368652,-0.015625,-0.00830078125,0.17866322517062302,-0.002651725932825023,0.23293416558640212,-0.00020190450209530255,0.0018828131729975222,0.0026958900175078427,0.5,0.0,1.3977277045379517,1.397732031571438,0.010289651242261904,0.010290380680202098,0.0,-0.00016098436348330566,-0.00018148371878865546,0.0
1626093725.0491679,-6.003159040462168e-14,2.2332234645925223e-16,5.77,4.53,0.07454206049442291,8.520870323991403e-06,1.097561001777649,0.0,0.01513671875,0.17305999833025174,0.002142771021403037,0.20497759211143277,0.001913671587600576,0.002028539350660253,0.0025681599297987237,0.5,0.0,1.3990288985456913,1.3990349098908854,0.01007499373645223,0.010075786591690424,0.0,-0.00012704136351390864,-0.00016818906596020438,0.0
1626093725.1091678,-5.0208990842767084e-14,2.1559133448551303e-16,5.77,4.49,0.47471684217453003,1.7040652892319486e-05,-0.18292683362960815,0.013671875,-0.41845703125,0.1718403282555486,0.010121968231355468,0.19866151999107712,0.008005490652925324,0.002227441507017398,0.0030967117022051905,0.5,0.0,1.400261506073267,1.400269004565224,0.009805382958291942,0.009806150899347468,0.0,-9.582657899253404e-05,-0.00013871755088269518,0.0
1626093725.1711679,-4.5580627750692736e-14,2.0880834591157802e-16,5.76,4.35,0.4907873868942261,-0.032991956919431686,2.6219513416290283,0.1728515625,0.1865234375,0.23385788652044573,0.008996724362104315,0.22243831540593345,0.010352022584306982,0.004969666651959509,0.0057746399291419516,0.0,0.0,1.402738125666884,1.4027486103646416,0.008954033079534475,0.008954771052587478,0.0,-6.038886634323609e-05,-8.933941415148612e-05,0.0
1626093725.229168,-4.054066943720643e-14,2.0859835480803985e-16,5.79,4.23,0.14134493470191956,-7.314323813290002e-09,4.146341323852539,-0.0576171875,0.22021484375,0.22006710355136155,0.007991488811646883,0.23698271448793126,0.01067707399381905,0.003598955495690987,0.006161092695786629,0.0,0.0,1.4046302400736699,1.4046433198129868,0.010440873904751185,0.010441756334475237,0.0,-8.062571755756058e-05,-8.07301230257473e-05,0.0
1626093725.289168,-3.424825426066267e-14,2.0849983133642547e-16,5.82,4.2,6.705482835656085e-10,6.237658389807166e-09,1.1585365533828735,-0.00537109375,-0.00244140625,0.14074477055524792,0.003731479836028909,0.2181358733101564,0.005402131982869088,0.004107298677410463,0.0055016131374673646,0.0,0.0,1.4056260321132596,1.4056404414738362,0.010081156926936789,0.010082065768233091,0.0,-5.9906245428350933e-05,-7.631395266885365e-05,0.0
1626093725.3491678,-3.0121658989302036e-14,2.0851929311232467e-16,5.83,4.18,6.705482835656085e-10,6.237658389807166e-09,1.097561001777649,-0.0126953125,0.021484375,0.05130797129663664,0.002259104231204771,0.16145784577558447,0.0032772079433211502,0.00407858610290898,0.00508184428360618,-0.5,0.0,1.4068277050882514,1.4068435423353158,0.009792292521075264,0.009793143292225717,0.0,-3.8557110930641304e-05,-6.0399456144846635e-05,0.0
1626093725.409168,-2.3414346350106767e-14,2.049532725817699e-16,5.83,4.19,0.31955888867378235,-0.016495969146490097,0.6707317233085632,-0.0576171875,0.0634765625,-0.045625019328337166,0.004542512956646663,0.04331940795295001,0.0036752759891708776,0.0042784892991512054,0.0050812982857235695,0.0,0.0,1.4080033050209526,1.408019817423921,0.009804154639328464,0.00980477446016452,0.0,-2.6245157675824986e-05,-3.891968258589792e-05,0.0
1626093725.469168,-1.4067186104675346e-14,1.987213287893876e-16,5.76,4.23,1.5808755346458092e-11,-1.4705819895155514e-10,2.195122003555298,-0.01806640625,-0.00390625,-0.09605031154746187,-0.008819611637241133,-0.08886882491309597,-0.007202608360252604,-0.0015422998817378995,0.002650348482343435,0.0,0.0,1.4095469617202099,1.409563032738198,0.008953604822620831,0.008953901075605257,0.0,-1.333454420148686e-06,-7.765739875492811e-06,0.0
1626093725.529168,-1.1594192356201416e-14,1.9375276879256317e-16,5.76,4.27,1.582082555240394e-11,-1.4717045637713255e-10,1.3414634466171265,-0.00439453125,0.00732421875,-0.04941759263776857,0.0009076817978627187,-0.09204086211295426,5.7190731126794726e-05,-0.0016066526168059755,0.0006814475869476697,0.0,0.0,1.4107721183802884,1.4107882381406711,0.010407987249086766,0.010408237883168858,0.0,-4.570385602820049e-06,-7.7373306885946e-07,0.0
1626093725.5891678,-6.945106387665996e-15,1.8540905948905894e-16,5.75,4.29,1.5808755346458092e-11,-1.4705819895155514e-10,1.1585365533828735,-0.0146484375,0.00927734375,-0.03228584654232223,0.001381498278676164,-0.07734315989790766,0.0009555400195530079,-0.0015861367858139921,4.100813320578517e-05,0.0,0.0,1.411349796021433,1.4113660484769774,0.010071547774300856,0.010071746829528251,0.0,-1.6229114426321493e-06,2.0764825598749443e-06,0.0
1626093725.649168,-4.615640123463752e-15,1.766285315170281e-16,5.77,4.3,1.5808755346458092e-11,-1.4705819895155514e-10,1.2195122241973877,-0.00048828125,0.00146484375,-0.017768909718304183,0.0012776631025698188,-0.05688049734199278,0.001255614609805258,-0.001550920492910644,-0.0002917028891347169,0.0,0.0,1.4123143629835577,1.4123308131218641,0.010534853318160248,0.010534994839786083,0.0,2.1979407086943697e-06,6.126833341437314e-06,0.0
1626093725.709168,-1.84165822322369e-16,1.6529409777690324e-16,5.79,4.29,1.582082555240394e-11,-1.4717045637713255e-10,1.3414634466171265,-0.0146484375,0.0078125,-0.010312525258401059,0.0017189773732811389,-0.037983170809789184,0.0013981771503021449,-0.001573042366648874,-0.0005457499518534621,0.0,0.0,1.4129240870220612,1.4129406071535913,0.009392320146993937,0.009392408665014961,0.0,4.5056139418476955e-06,8.277502112709237e-06,0.0
1626093725.775168,-1.8914421554751422e-14,1.4988437097804307e-16,5.77,4.28,0.06631965190172195,-0.033026039600372314,4.878048896789551,-0.02197265625,0.06787109375,-0.04796785066579925,0.0017737668429771202,-0.027734189541400226,0.0015681130357921692,-0.0021211797320708227,-0.0005199576041127411,-0.5,0.0,1.4147872779277737,1.4148038770624503,0.010363286889955449,0.010363320721282671,0.0,8.045452329517936e-06,1.2886597573394171e-05,0.0
1626093725.8291678,-1.4414548354692216e-14,1.38813616618086e-16,5.76,4.33,0.28091704845428467,0.016491515561938286,-0.8536585569381714,-0.24755859375,0.07373046875,-0.08665848060837243,0.010450910280657788,-0.06290786789998135,0.007189253914853132,-0.0038274712398576514,-0.0008162056543361429,0.0,0.0,1.4158039985632547,1.415820688782144,0.010432671958447376,0.010432708669187083,0.0,3.270345520411783e-05,2.6414003769101352e-05,0.0
1626093725.889168,-9.701879922989754e-15,1.2418774216230074e-16,5.65,4.49,1.847516931108295e-11,-1.7186203848940096e-10,1.6463414430618286,-0.0400390625,0.0517578125,-0.0758559435724461,0.00529358874123609,-0.08213967174648569,0.005999311349670305,-0.002816392595290846,-0.00020356643061940902,0.0,0.0,1.416606158519491,1.416623016108749,0.010287186533636763,0.010287248675148715,0.0,2.9944380790319202e-05,3.2414473948036746e-05,0.0
1626093725.949168,-7.340905552350863e-15,1.084014948104152e-16,5.71,4.42,1.847516931108295e-11,-1.7186203848940096e-10,1.2195122241973877,-0.0078125,0.00732421875,-0.04450397444819654,0.03308733471115087,-0.07685174516193104,0.0033668704145291715,-0.0023841635775067797,-0.000212988940655641,0.0,1.0,1.4173554774161943,1.4173725284102159,0.01053656912114358,0.010536653746297243,0.0,2.315105843418831e-05,3.359520396448277e-05,0.0
1626093726.009168,-3.791295957282819e-15,8.923846963304266e-17,5.74,4.4,0.009021972306072712,0.7919261455535889,-33.780487060546875,-0.1083984375,-0.0302734375,-0.025529484511244583,0.128987520137837,-0.05326428923036229,0.11102346945040487,0.04199173014817713,0.02238366635563779,0.0,1.0,1.4182684687653504,1.418285692512754,0.009769806872865801,0.009769891474842854,0.0,2.620276108785513e-05,2.9364317437404042e-05,0.0
1626093726.129168,-1.4917538493202227e-15,5.897682600333474e-17,5.71,4.33,6.733925062007984e-08,6.264116336751613e-07,1.585365891456604,0.00244140625,0.01220703125,-0.011136060586632676,0.08604157485445427,-0.025281976729516712,0.15365719075742282,0.37506413590257615,0.24362153226170274,0.0,0.0,1.420342145312342,1.4203595005092047,0.010442730336855426,0.01044278422708983,0.0,2.972046450439969e-05,2.5951125879869983e-05,0.0
1626093726.249168,-1.0424826882904038e-15,3.0378273286143215e-17,5.68,4.31,0.0011300266487523913,0.09899312257766724,-4.02439022064209,-0.01416015625,0.02001953125,-0.0031985750126713474,0.12749205502236127,-0.008685929318623022,0.05320430398608469,0.38616965930000746,0.352997677345423,0.0,1.0,1.4219471762276603,1.4219645417491145,0.010075988739425201,0.010076013586646924,0.0,2.26181444940187e-05,3.094325307104603e-05,0.0
1626093726.3091679,2.518973917336962e-15,1.3995960368411545e-17,5.68,4.31,0.0025253475178033113,-0.04948659613728523,-33.53658676147461,0.00830078125,0.06298828125,-0.003005260443725086,0.14340293892457773,-0.003962374842732655,0.1487289687902393,0.4982604525838587,0.4229753220931618,0.0,0.0,1.4230936958912304,1.423111059911715,0.01007571099930984,0.0100757260767733,0.0,-2.138223411071483e-06,1.7386694136373166e-05,0.0
1626093726.379168,-3.44219996919861e-14,-4.717590821168046e-18,5.66,4.32,0.19579017162322998,0.03301749750971794,-4.02439022064209,-0.00830078125,-0.10595703125,0.08414097312444631,0.012659874998919855,0.0354554444721476,0.045641120568961524,0.5064479148110123,0.5172215755588352,0.5,0.0,1.425027330232517,1.4250446931521865,0.009448285965585085,0.00944829499014574,0.0,-6.163254782332654e-06,8.542543542777106e-06,0.0
1626093726.429168,-2.6603054697427645e-14,-1.327452748963123e-17,5.65,4.3,0.4882621765136719,0.016496075317263603,-5.97560977935791,0.1435546875,0.5810546875,0.10925547872714778,0.023999791201751195,0.07038439889470806,0.020455783546717492,0.5066213813791492,0.5168677481767328,0.5,0.0,1.4259475701742186,1.4259649528343774,0.010446338236417737,0.010446371796239981,0.0,-0.00012559798060136725,-5.3278723224187244e-05,0.0
1626093726.489168,-1.706742872823495e-14,-2.4243103880706178e-17,5.6,4.18,0.49863743782043457,-3.286689752712846e-05,0.12195122241973877,0.48193359375,-0.04638671875,0.19116760869387434,0.02065868170364117,0.12479715822665495,0.024831973400596053,0.5154989290178659,0.5199568713746912,0.5,0.0,1.4268391932347526,1.4268566803715306,0.010462595751257235,0.01046268699985985,0.0,6.467798608112095e-05,-4.797576094826351e-05,0.0
1626093726.5491679,-1.0719180651651774e-14,-3.386930884881964e-17,5.59,4.12,0.499654084444046,0.0494893454015255,0.7317073345184326,-0.01171875,0.11669921875,0.2182694142964005,0.009393139036330121,0.18151551827533186,0.013396686811893014,0.5152285548904301,0.5205635819230588,0.5,0.0,1.4278103177879973,1.4278280884547496,0.01007304658420566,0.010073264579181718,0.0,5.822377185817812e-05,1.6523945483622734e-05,0.0
1626093726.6091678,-3.4700603872104665e-15,-4.4846761921691e-17,5.55,4.02,0.3527168035507202,0.03299114853143692,0.3658536672592163,-0.15771484375,0.123046875,0.2326103551191747,0.009928449431713194,0.22405523391996152,0.011620717298741477,0.5170082148339205,0.5206100727837254,0.0,0.0,1.4292568364068046,1.429275376852065,0.010379165034825392,0.010379599021745057,0.0,5.1487183856161005e-05,3.596397801780671e-05,0.0
1626093726.6711679,0.00191589658214825,7.493000693814737e-10,5.47,3.86,1.2525246972927562e-07,1.1651393378997454e-06,0.9756097793579102,-0.00634765625,0.017578125,0.11650125128984327,0.0021415552730335696,0.19114952075588365,0.0022120842861272166,0.5167118747494609,0.5177226094548816,0.0,0.0,1.4321348547662875,1.4321553914275522,0.010239768240062772,0.010240551372246477,0.0,3.142303790687387e-05,3.461330105634221e-05,0.0
1626093726.729168,0.00535626244879995,1.8926238209717173e-07,5.45,3.83,1.2525246972927562e-07,1.1651393378997454e-06,1.2804877758026123,0.0,-0.00537109375,0.060228552033885004,0.0018807229352755474,0.14434989344327337,0.001974029776995104,0.5166189201198278,0.517351802658118,0.0,0.0,1.433016343921225,1.433037312666907,0.010179081324698327,0.01017979462886445,0.0,2.9964740651986817e-05,3.430152390819028e-05,0.0
1626093726.789168,0.01018175416310866,1.3823014019222946e-06,5.45,3.84,1.253480945706542e-07,1.1660288237180794e-06,1.2195122241973877,-0.0009765625,0.00732421875,0.033828779512932804,0.0016918300570868947,0.08227228357354671,0.0017250197639738015,0.516619615607928,0.517279263552819,0.0,0.0,1.4342236239384918,1.4342449512060802,0.010352580354616538,0.01035309788273404,0.0,2.7739005612185223e-05,3.277356904500254e-05,0.0
1626093726.8491678,0.016371844781664445,3.6345549458393057e-06,5.45,3.84,0.013921172358095646,-0.016494812443852425,1.2195122241973877,-0.00146484375,-0.0078125,0.042762032648879934,0.0017207375792616757,0.05046281751551482,0.0016578007280028866,0.5166098128629877,0.5172701936573627,0.5,0.0,1.4349742777189125,1.4349956350145054,0.010046141464162743,0.010046488458857793,0.0,2.470185969544858e-05,3.0086915326077167e-05,0.0
1626093726.909168,0.02218911908033499,5.680202355071881e-06,5.45,3.83,0.2610880434513092,-0.016496019437909126,-1.2195122241973877,-0.09423828125,-0.09326171875,0.07450826327129292,0.0067579955390555824,0.05968277604666865,0.004106535308547293,0.5179543097597314,0.5177063485885991,0.0,0.0,1.4355088478392695,1.4355302285315406,0.00916539873244559,0.009165642002067776,0.0,2.6598217314033944e-05,2.7947188589183995e-05,0.0
1626093726.969168,0.030726135822958266,5.941393938416037e-06,5.44,3.8,0.023377209901809692,0.32998716831207275,1.097561001777649,-0.001953125,0.00341796875,0.04682970085517703,0.03045664630371859,0.06089684853949345,0.015631279633690456,0.5185570262753632,0.5199465389254297,0.0,1.0,1.4376209714057686,1.437642597883576,0.010237848559682766,0.010237997352501993,0.0,6.8592068439227025e-06,1.1584703720342991e-05,0.0
1626093727.029347,0.035602019209435495,-2.444890437455718e-07,5.42,3.81,0.01052782591432333,0.9239122867584229,-49.93902587890625,-0.03125,-0.05419921875,0.022634067303759067,0.16061993103288355,0.04048926796134824,0.12406816937768406,0.600611591448029,0.5515281528383538,0.0,1.0,1.4385343610935015,1.438556037405191,0.010360685535249476,0.010360801265289349,0.0,-9.071803433434946e-05,-1.9787863162901915e-05,0.0
1626093727.089347,0.04109797223761704,-9.15713443642906e-06,5.42,3.78,0.008759824559092522,0.9411765933036804,-53.59756088256836,0.0126953125,0.06591796875,0.01133016706021713,0.14438183824515904,0.022316833196235772,0.16702356688402595,0.80920232810636,0.65858122959564,0.0,0.0,1.4395889063230725,1.4396105907324988,0.010353894946402951,0.01035397616356426,0.0,-0.0003003047410047874,-0.00013757696918639532,0.0
1626093727.149347,0.047111821197447355,-1.9290306258336355e-05,5.47,3.81,0.0035503858234733343,-0.03302684426307678,2.195122003555298,0.00830078125,-0.05029296875,0.004807235441223269,0.1376617289297323,0.0091604033204641,0.19627867376828878,0.9853634643217688,0.8492255214438849,0.0,0.0,1.440669645226495,1.4406913214301844,0.010051007114936748,0.01005105892167647,0.0,-0.0004274540069654427,-0.00029871971044291297,0.0
1626093727.209347,0.053377564729557486,-2.948362060381065e-05,5.48,3.82,1.0809191763883064e-07,-1.0055061920866137e-06,1.2804877758026123,-0.00439453125,0.0068359375,0.0023772649577732496,0.01684184556017868,0.0004471669084425355,0.04574920045900066,0.9942533851150355,0.9393673330817428,0.0,0.0,1.4417913606816064,1.4418130337721389,0.010381131997357625,0.010381164027304922,0.0,-0.0003480773708356097,-0.00036955509947975417,0.0
1626093727.275347,0.06265009306128441,-4.3675930063801186e-05,5.42,3.76,0.3409486413002014,0.03302524983882904,-2.1341464519500732,0.04443359375,-0.41064453125,0.09786975819730272,-0.0040669023350043566,0.04643953667046098,-0.0045996785319842816,0.9811383744149167,0.9737629248959904,0.5,0.0,1.443410558900114,1.443432228643016,0.010203440054581302,0.010203460962937576,0.0,-0.00023781128993610826,-0.00030365998327885863,0.0
1626093727.329347,0.06753396964186392,-4.858600373662636e-05,5.35,3.73,0.5378626585006714,-0.033026594668626785,-2.317073106765747,-0.3681640625,0.025390625,0.1430754646105479,0.022587109657397325,0.09078688768089586,0.015081813287062814,0.9898982894750087,0.9789176988130656,0.5,0.0,1.4442889654608169,1.444310607041334,0.010354094605088147,0.010354162618369096,0.0,-5.90509094783005e-05,-0.000249533455131021,0.0
1626093727.389347,0.07222495324267814,-5.200903564000388e-05,5.28,3.63,0.5086424946784973,-0.016475467011332512,0.5487805008888245,0.40380859375,-0.46826171875,0.2101270955353126,0.011877938051409595,0.14530093742089306,0.015597324562369789,0.9932288597636586,0.9872097080452068,0.5,0.0,1.4452410036213863,1.4452625267037553,0.010274871640544291,0.0102750292028368,0.0,0.00012979633447784386,-6.587879260799051e-05,0.0
1626093727.449347,0.07653012070720853,-5.468835313107716e-05,5.25,3.6,0.5039524435997009,0.016495732590556145,-2.317073106765747,0.646484375,-0.052734375,0.23040529877196886,0.008562754721696611,0.18628833673399878,0.010207704411841118,0.9947801582006761,0.9914399785238311,0.0,0.0,1.4459552894572367,1.445976624836995,0.009731884015617302,0.00973215458227357,0.0,0.00013241188203478882,3.607797555132215e-05,0.0
1626093727.509347,0.0803738689740381,-5.850035772851376e-05,5.15,3.52,0.0802491083741188,0.016495170071721077,0.4878048896789551,-0.00146484375,0.12890625,0.23118038688742013,0.007340162733059818,0.22137455062598313,0.009188237547057821,0.9941966548892536,0.9946358829779065,0.0,0.0,1.4471913388901132,1.4472121771439894,0.009209718340777578,0.00921020174900483,0.0,0.00011054902332300278,9.925112537458921e-05,0.0
1626093727.569347,0.08568339292534924,-6.369670967446147e-05,5.08,3.51,7.490450038005747e-09,-6.96786059961596e-08,1.2195122241973877,-0.0009765625,0.0048828125,0.08316964596437107,0.002611237838462116,0.1574270101858056,0.0029648361142742656,0.9935816926726102,0.9946849002772444,0.0,0.0,1.4501925264517386,1.4502118292402462,0.010351239998252377,0.010351967781705195,0.0,0.00010823109863995679,0.00013363810280310918,0.0
1626093727.629347,0.08796564625117914,-6.570934542378393e-05,5.07,3.53,0.001610933686606586,-0.3134918510913849,21.158536911010742,-0.015625,0.0166015625,0.04083141063911723,-0.1351162938960373,0.09313218703631883,-0.07396689904797417,0.9858702260413932,0.9858208743133037,0.0,-1.0,1.4513973988925455,1.4514164060459416,0.01042733970056629,0.010427901859357148,0.0,7.747843983091841e-05,0.00012595452065778805,0.0
1626093727.689347,0.08990744544200216,-6.817175867881058e-05,5.08,3.56,0.01231422834098339,-0.908074676990509,46.524391174316406,0.1025390625,0.0009765625,0.024201253562370934,-0.23307754321934793,0.05401517845170559,-0.20518165351827228,0.8860001390851548,0.9275996851074155,0.0,-1.0,1.4524417953076179,1.452460737003129,0.010201648920228387,0.01020204139751462,0.0,7.833274956616376e-05,0.00011005938137845479,0.0
1626093727.749347,0.09125477871834739,-7.04636469201889e-05,5.08,3.59,0.01305315364152193,-0.9733991026878357,55.97561264038086,-0.02734375,-0.03125,0.016367122490917718,-0.20175852412982742,0.03331426084300587,-0.22444110757738345,0.6734799943163988,0.823269536714705,0.0,-1.0,1.4533925315527103,1.4534114800098283,0.009778676315567131,0.00977895301907431,0.0,1.4042652344085067e-05,9.312544132237853e-05,0.0
1626093727.809347,0.09173017801352085,-7.168816319762472e-05,5.09,3.59,0.010892108082771301,-0.9569373726844788,57.80487823486328,-0.06494140625,0.00537109375,0.011759820902923218,-0.18690059645816365,0.01677148554099522,-0.23536453172948413,0.43554373161516197,0.6149240147308719,0.0,-1.0,1.4547579002929538,1.45477686106523,0.009438405236062045,0.00943857629780875,0.0,-8.87145266746794e-05,2.178121337793568e-05,0.0
1626093727.8693469,0.09134773741561551,-7.269353802553262e-05,5.15,3.62,1.8487178010673233e-08,1.7197376678268483e-07,1.6463414430618286,-0.0263671875,0.01953125,0.005606674070049739,-0.09898967791782605,0.0002906224880540456,-0.17840523240961614,0.12101123351665692,0.17752784061230195,0.0,0.0,1.458084751631099,1.4581037377906731,0.010336813588362947,0.01033687276084467,0.0,-0.00011673250711135029,-0.00011393180430422892,0.0
1626093727.929347,0.08917090652816964,-7.186728712171698e-05,5.26,3.61,1.8487178010673233e-08,1.7197376678268483e-07,1.2804877758026123,-0.0009765625,0.01318359375,0.0028578310963845244,-0.0190734595880158,-0.004042208781213604,-0.044592480680604146,0.1266554090028411,0.1297306469958995,0.0,0.0,1.4592669141044134,1.459285904567882,0.010356927672154277,0.010356956239962209,0.0,-8.721310652519099e-05,-0.0001132018547377255,0.0
1626093727.989347,0.08532822033674504,-7.025472213042983e-05,5.3,3.62,1.8501291165762268e-08,1.7210504665854387e-07,1.402438998222351,0.0009765625,0.0126953125,0.0016045861511835627,-0.00238929024950872,-0.005856689882027577,-0.007499941449116703,0.12751627548745034,0.12638600350494006,0.0,0.0,1.4600570395201284,1.4600760320313382,0.010272571342195079,0.010272586210942588,0.0,-6.767655049828953e-05,-9.820796999239086e-05,0.0
1626093728.049347,0.0797964278264254,-6.811764040510034e-05,5.27,3.62,1.8487178010673233e-08,1.7197376678268483e-07,1.2195122241973877,-0.00439453125,0.01220703125,0.0009121379223676963,0.000293308776559538,-0.006455177951671788,-0.001384126890658417,0.12772572590509226,0.1263203387512434,0.0,0.0,1.460625004504194,1.4606439985151787,0.01013147904288153,0.010131487683309626,0.0,-5.101611471412169e-05,-8.319880956828116e-05,0.0
1626093728.1093469,0.07286374455797436,-6.537180414517618e-05,5.3,3.6,0.003763878718018532,-0.32995355129241943,6.52439022064209,-0.013671875,0.02880859375,0.0004939388283430087,-0.1284515952639782,-0.006784708907508553,-0.07615372544746568,0.11939016517993394,0.11652596353216091,0.0,-1.0,1.4616800574935547,1.4616990544292676,0.010354312388960327,0.01035431639040455,0.0,-3.7337901723085e-05,-5.998677681342168e-05,0.0
1626093728.171347,0.06353337237760043,-6.069463016429793e-05,5.08,3.62,3.2799221671986345e-10,3.0510904913683135e-09,1.2804877758026123,0.0,0.015625,0.001365043843437457,-0.030755966777491178,-0.004587584264575991,-0.08267644091149443,-0.019082148415189515,0.012436913018756811,0.0,0.0,1.4636564658889353,1.4636754664992784,0.010158154568432571,0.010158156855283894,0.0,-6.158794470500837e-05,-6.73013431609951e-05,0.0
1626093728.229347,0.05976202150865174,-5.736381875387994e-05,5.04,3.61,0.13693861663341522,0.03299195319414139,2.682926893234253,-0.0654296875,-0.27392578125,0.08286405117683682,-0.005692850441424154,0.025592010819515915,-0.017752167734573387,-0.009704495345614128,-0.005381500852873404,0.5,0.0,1.4645147579820053,1.4645337579951694,0.010342466652031786,0.010342471802160668,0.0,-4.6931492710069543e-05,-5.8346261572957894e-05,0.0
1626093728.289347,0.05658709860107698,-5.327559391099586e-05,5.12,3.57,0.5064844489097595,-3.410912904655561e-05,2.6219513416290283,-0.60595703125,-0.140625,0.11124893761591545,0.0029407692459769213,0.07139443209585498,0.008303993147193704,-0.0032496782039747023,-0.0027892575959078724,0.5,0.0,1.4653295831389368,1.4653486152173283,0.01026491224513037,0.010264948657922851,0.0,6.672785298862561e-05,-5.799918704447161e-06,0.0
1626093728.3493469,0.054132728399768695,-4.873569052720792e-05,5.2,3.52,0.5160961747169495,-0.016495972871780396,-0.18292683362960815,-0.05126953125,0.09814453125,0.17633269414580763,-0.0013568525551816073,0.10906841343011599,-0.00037294038348686975,-0.010048128990566507,-0.0035609705469701793,0.5,0.0,1.465968757555588,1.4659879091194246,0.010126547765267807,0.010126630036038269,0.0,-0.00018145512220609666,-1.1189753276380175e-05,0.0
1626093728.409347,0.0525483262955263,-4.385789356252007e-05,5.12,3.4,0.498261034488678,-3.406010728213005e-05,2.2560975551605225,-0.2822265625,0.21630859375,0.21195694774766655,-0.0001814223543418563,0.17724021000351473,-0.00020734229560270728,-0.010795456925780987,-0.007564828130500831,0.5,0.0,1.4673207450458159,1.467340603836052,0.010347828948957237,0.010348063351127335,0.0,-0.0002640162255160873,-0.00017427840958927264,0.0
1626093728.469347,0.04919922766986628,-3.629369331162917e-05,5.16,3.23,0.027466150000691414,-1.988327724689043e-08,1.2195122241973877,-0.005859375,0.12060546875,0.21508452571241257,0.00021801216950461202,0.235364008652646,5.318701480882917e-05,-0.01469932913593558,-0.012752967994479435,0.0,0.0,1.4698109178683907,1.469833728822694,0.010293799663132064,0.010294456167426158,0.0,-0.00025995491126306567,-0.0002668176620915014,0.0
1626093728.529347,0.04661562936425888,-3.219681428560267e-05,5.17,3.16,1.3410964561089145e-09,-1.2475316779614332e-08,1.1585365533828735,-0.005859375,0.01123046875,0.1348708503644787,0.038729688876812864,0.20720713532159793,0.019620105136915606,-0.013043900619609557,-0.012338581119416636,0.0,1.0,1.4711696975503261,1.4711944576253544,0.010151830644635972,0.010152619034240928,0.0,-0.00020596878783800838,-0.00025996545068848466,0.0
1626093728.589347,0.04436091584770603,-2.8555236110069915e-05,5.16,3.14,0.010049618780612946,0.7100390791893005,-36.463417053222656,-0.02783203125,-0.029296875,0.07649620596788946,0.20902601851467068,0.14947611964933769,0.1558910096394947,0.029794353281945865,0.016408152520992883,0.0,1.0,1.4724013654196648,1.4724275770301827,0.009821317165154572,0.009822061242726448,0.0,-0.00017935425644606054,-0.00021780089917015333,0.0
1626093728.649347,0.04287171441666584,-2.4889364918614144e-05,5.12,3.12,0.010152077302336693,0.8909185528755188,-55.73170852661133,-0.02197265625,-0.03369140625,0.04081344096302909,0.17378843256204315,0.09485181433377773,0.18616042951568906,0.2084374547966485,0.12228958185208345,0.0,1.0,1.473813148806662,1.473840104783476,0.01012644148793471,0.01012702724315354,0.0,-0.0005925030115744757,-0.0003440736155613939,0.0
1626093728.709347,0.04233517958863566,-2.1294416457413046e-05,5.1,3.1,0.008383178152143955,0.9074488282203674,-53.719512939453125,-0.05029296875,0.05615234375,0.02111206455246301,0.16636956267957792,0.05310053512256157,0.20107678971538395,0.4266729607437552,0.30438493205327394,0.0,1.0,1.4749606919389486,1.4749878717054548,0.009189640973896697,0.009190040006569927,0.0,-0.0009279281476634794,-0.000647020605842101,0.0
1626093728.775347,0.042170333572670624,-1.6765536369585102e-05,5.04,3.1,0.0021492301020771265,-0.016496261581778526,1.585365891456604,0.0244140625,-0.00390625,0.0024273067766045807,0.17187078973104067,0.008523811172901847,0.23311124946939543,0.8461943031418713,0.7203922076108097,0.0,1.0,1.4777406003721896,1.4777678911191956,0.010171438860153372,0.010171614550638893,0.0,-0.001007883119563685,-0.0010419186840133592,0.0
1626093728.829347,0.04306554732538138,-1.4389185607936126e-05,5.03,3.12,0.011550293304026127,0.8414981365203857,-49.63414764404297,-0.0634765625,-0.0595703125,0.0008345822465941473,0.22152233376502425,-0.003619806151339715,0.2257021237183397,0.8755308545359876,0.858062465757559,0.0,1.0,1.4794202350556898,1.4794475189591667,0.010123504281241437,0.010123595399899207,0.0,-0.000795477300698902,-0.0010078938626852981,0.0
1626093728.889347,0.04430180374464108,-1.112036910363296e-05,5.01,3.07,0.006987699773162603,0.957699179649353,-54.817073822021484,-0.0712890625,-0.02978515625,-0.0014322554531870724,0.18961530795394138,-0.008260457540485064,0.21505300890676382,1.064019411162,0.9753546976040877,0.0,1.0,1.4807754685930707,1.4808027494429232,0.009918796989325249,0.009918846825485996,0.0,-0.0007294419041315768,-0.0008956260178004331,0.0
1626093728.949347,0.045677318373063124,-7.44300190999694e-06,4.98,2.95,0.009515160694718361,1.0064613819122314,-61.64634323120117,-0.04052734375,0.10302734375,-0.002750611417125443,0.17856584829091643,-0.010991271686384347,0.22142157536487303,1.2914905664782883,1.164284950437837,0.0,0.0,1.4821907945727437,1.482218071412115,0.010039981905529655,0.010040007749450557,0.0,-0.0006939635491623523,-0.0008132733286741508,0.0
1626093729.009347,0.04705232995220388,-3.941541235208296e-06,4.97,2.99,0.0017730275867506862,-0.016493279486894608,5.609755992889404,-0.03369140625,0.01220703125,-0.004042555454593102,0.182317167672171,-0.011717630164770912,0.24441413655631988,1.5039885477050419,1.3947597139521024,0.0,0.0,1.4834401054637645,1.4834673785084662,0.009387069978896479,0.009387082433038055,0.0,-0.0007048092085922047,-0.0007706398541804285,0.0
1626093729.069347,0.04903421665262377,1.0869133798173845e-06,4.95,3.27,0.08846209198236465,-0.01649700105190277,0.0,-0.02197265625,-0.11376953125,0.06071900305768215,-0.0003384703953839403,0.005640050531021794,0.03093082762464476,1.5249576615109381,1.5363251333825285,0.5,0.0,1.4864882991902597,1.4865155585699075,0.010826457386628512,0.010826460499850149,0.0,-0.00036839548470851924,-0.0005122846571501202,0.0
1626093729.129347,0.04984940794079233,2.5143999978664464e-06,4.94,3.18,0.4757426679134369,0.08248131722211838,-0.3048780560493469,-0.48046875,-0.3583984375,0.11551964403054914,0.011519422675965688,0.059568405440434534,0.010488367447006146,1.517054563084311,1.5291075879758786,0.5,0.0,1.4873264754895528,1.4873537333499147,0.010462934438070538,0.010462958803524823,0.0,-0.0003708165470023359,-0.00042886677781460897,0.0
1626093729.189347,0.050186512304263894,2.7887273572660066e-06,4.9,3.08,0.5004038214683533,0.016511419788002968,-7.012195110321045,0.22509765625,0.0576171875,0.18020275899256327,0.017747617823697756,0.11719842476687901,0.01402709257505187,1.5248474552513585,1.52899849553348,0.5,0.0,1.4881952817557096,1.4882224072139891,0.010292014232202091,0.01029210232096513,0.0,-2.4782942340523184e-05,-0.00026259351185377685,0.0
1626093729.249347,0.049657084031846946,2.8195131280906516e-06,4.8,3.05,0.4943259060382843,-1.0844164677337176e-07,-1.0365853309631348,-0.58251953125,0.05517578125,0.21992683088985968,0.015738431280379623,0.17491954215454944,0.01713797876949562,1.5275923669503937,1.5311070115440955,0.0,0.0,1.48913906130913,1.4891656985349488,0.00986982418279876,0.009870047366762991,0.0,9.202838155751632e-05,-4.6973313503582854e-05,0.0
1626093729.309347,0.04790646423795766,2.8456487539054313e-06,4.71,3.04,0.19616125524044037,-6.548389706040325e-07,-3.1097562313079834,0.34130859375,0.197265625,0.22190977723158573,0.009231330925888211,0.21670830521719223,0.007280642983251134,1.5278872811908581,1.5302489998735236,0.0,0.0,1.4905537554350856,1.4905789939874168,0.01033293941572398,0.010333384997099909,0.0,0.00011187470104462837,8.043601670516579e-05,0.0
1626093729.3693469,0.04393686085346355,3.1576343951842026e-06,4.58,3.01,0.007679065223783255,-0.33002230525016785,12.439024925231934,0.0126953125,0.1953125,0.09274864870582326,-0.12051874393064685,0.17265631651238694,-0.03734417079257874,1.5155498807817667,1.525023461384183,0.0,-1.0,1.493034147046961,1.4930561861620826,0.01033074138995861,0.010331454399164103,0.0,0.00016619867687790973,0.00019221182373863716,0.0
1626093729.429347,0.03962372641735112,3.836590815434883e-06,4.55,2.98,0.010528248734772205,-0.9239083528518677,46.34146499633789,-0.0263671875,0.07275390625,0.04981526152914935,-0.1677788115975273,0.1184840508188067,-0.14758016856961936,1.36653887583553,1.4685351217443436,0.0,-1.0,1.4941580489131563,1.4941791561936157,0.010122345390238242,0.01012296130161819,0.0,0.0003586977716999615,0.00026026772385465976,0.0
1626093729.489347,0.03390624036849683,4.871350681447964e-06,4.56,2.97,0.012684102170169353,-0.9412263631820679,51.95122146606445,-0.04248046875,-0.01611328125,0.030718285543578853,-0.16153784126683918,0.06629838650414935,-0.19293903504062004,1.1525848346523528,1.2859870450662925,0.0,-1.0,1.4956692294819467,1.4956898413863247,0.010091234427680569,0.01009166003360932,0.0,0.0004834637353763183,0.0004147991182685798,0.0
1626093729.5490859,0.027137378772319306,6.256069850887526e-06,4.57,2.96,0.010908438824117184,-0.9569361805915833,54.8780517578125,-0.0224609375,-0.041015625,0.019515458257234764,-0.1702098837129804,0.03792265224395168,-0.225589287073232,0.9251820352618231,1.0760681726421821,0.0,-1.0,1.4969225077418598,1.4969430252731981,0.009878252221672906,0.009878534836567796,0.0,0.0004886931355758878,0.0004953215816341099,0.0
1626093729.6090858,0.019694828061667904,7.921230386830038e-06,4.55,2.96,0.005691435653716326,0.016529882326722145,32.9878044128418,-0.05126953125,-0.10693359375,0.013531572389946227,-0.18274074851525818,0.019773806207463152,-0.2537948563638814,0.7026594521409334,0.8342122081813719,0.0,-1.0,1.4983773857811171,1.4983978858632936,0.00977237953766495,0.009772557458444424,0.0,0.0003311236145594049,0.0004718358704261145,0.0
1626093729.6710858,0.008160555656843028,1.0592885582397958e-05,4.58,3.0,0.009136452339589596,-0.9735705852508545,52.621952056884766,0.02734375,0.01806640625,0.006128600408210402,-0.23767645223173936,0.00174252130177947,-0.2383739280167357,0.5791409168585523,0.6104798955756732,0.0,-1.0,1.5010163838101107,1.5010368930880373,0.009670601387101399,0.009670662933217397,0.0,0.00019838735676182428,0.00032150037037605226,0.0
1626093729.729086,0.0015440726775944147,1.2260241698586178e-05,4.63,3.08,0.010528761893510818,-0.9239789843559265,52.682926177978516,-0.01904296875,-0.021484375,0.00582960261757009,-0.20608726197985297,-0.0018747163843362742,-0.2428303983212803,0.3071054490972914,0.4182057504507609,0.0,-1.0,1.5027335618332027,1.5027540738110898,0.01037134997745612,0.010371383869021339,0.0,1.3788083290662593e-05,0.00019662234053998085,0.0
1626093729.7890859,-0.00766914681775445,1.4022726718945934e-05,4.59,3.1,0.00876943301409483,-0.9411249160766602,57.5,0.07568359375,0.02490234375,0.005585747477991997,-0.19613260954714368,-0.002212031223161154,-0.24171363703627283,0.08512480252057258,0.26545577859787334,0.0,0.0,1.503757356325896,1.5037778691921508,0.00983822593913669,0.009838246266517931,0.0,-0.00011131353470481058,8.44779681552028e-05,0.0
1626093729.8490858,-0.018686964325906608,1.5803819359226288e-05,4.61,3.11,4.971248412921625e-10,4.624417293541683e-09,1.3414634466171265,-0.00439453125,0.00439453125,0.004211134944069213,-0.13079541980471837,-0.0025877580077399913,-0.21214348999831453,-0.0011361854309691703,0.04387479281626755,0.0,0.0,1.5055649996476288,1.5055855132559792,0.009885408824835086,0.009885417983804743,0.0,-0.00010996425469862813,-5.3114159908734197e-05,0.0
1626093729.909086,-0.030409907237339325,1.7437269337484992e-05,4.57,3.12,4.971248412921625e-10,4.624417293541683e-09,1.2195122241973877,-0.00146484375,0.00341796875,0.002470939535772857,-0.008758801133266858,-0.0031227081326318006,-0.032979733530227415,0.0016795399900212712,0.010859857734997994,0.0,0.0,1.5065351071296973,1.5065556209966346,0.00970611240562355,0.009706117215066437,0.0,-8.769352374571386e-05,-8.894691837868603e-05,0.0
1626093729.969086,-0.04834439530447049,1.9785344334520906e-05,4.54,3.12,0.002900371327996254,-0.08241171389818192,1.4634146690368652,-0.00048828125,0.017578125,0.0007755847116035858,-0.09978808535271105,-0.004004970234308767,-0.05993487375948077,-0.002655089871494626,-0.0019588896308080977,0.0,-1.0,1.5081469815670907,1.5081674974778476,0.00959439049116469,0.009594392743071589,0.0,-5.345822374484785e-05,-8.292177800769232e-05,0.0
1626093730.0290859,-0.056907486221166294,2.099910466374183e-05,4.57,3.13,0.006459543947130442,-0.04945390298962593,-2.804877996444702,0.00439453125,0.01904296875,0.0018425158315072848,-0.0956260875826869,-0.003935543026899917,-0.10030664104630335,-0.07294566982999034,-0.027462744119921282,0.0,0.0,1.5089487588919714,1.5089692757710216,0.010162185166121218,0.010162187408091395,0.0,-6.245282540730196e-05,-7.730007537220607e-05,0.0
1626093730.0890858,-0.06485395379810456,2.2653814753714746e-05,4.58,3.13,1.881677569315343e-08,-1.7503977289834438e-07,1.2804877758026123,-0.00634765625,0.00830078125,0.0011202279808154069,-0.033273700205640785,-0.0030443684945138183,-0.0704820112334745,-0.07570404145112418,-0.06935283583616948,0.5,0.0,1.5100734959854116,1.5100940140810215,0.010096141589250885,0.010096144045229417,0.0,-4.833496274442374e-05,-7.148715357127419e-05,0.0
1626093730.149086,-0.07255704318974936,2.2893319442752994e-05,4.59,3.14,0.26323288679122925,-0.032957881689071655,5.487804889678955,-0.21923828125,-0.39599609375,0.08946436102195855,0.008982896396353237,0.031206113192410224,-0.005074406948569053,-0.06060302990648842,-0.07304159432811402,0.5,0.0,1.5108431434397713,1.510863661519911,0.00987348906209284,0.009873494247097284,0.0,1.6581140287514088e-05,-4.9972424392930136e-05,0.0
1626093730.209086,-0.08018155405972943,2.2424630677203188e-05,4.62,3.1,0.5514236092567444,-0.01649603247642517,1.9512195587158203,-0.22119140625,0.41650390625,0.12472053438134126,-0.0002649785776692912,0.0755331901468739,0.006692854273950214,-0.06279259110940141,-0.06731545632176629,0.5,0.0,1.5116546664491406,1.5116752182904984,0.009762295748671448,0.009762330633061407,0.0,8.740329531197927e-06,6.332958178531545e-06,0.0
1626093730.275086,-0.09133624846167335,2.296649634244703e-05,4.6,2.97,0.5025559067726135,-0.03306002542376518,1.097561001777649,-0.0634765625,0.1884765625,0.21864630898403414,0.0020703351436327753,0.1914435747122615,-2.2328201656032862e-05,-0.06835296869684403,-0.06850568484845791,0.5,0.0,1.5137039780408594,1.513725431069259,0.009600012162300466,0.009600292140853,0.0,-0.0002492205222526855,-0.0001898028175798118,0.0
1626093730.3290858,-0.09667777442591624,2.535840367327523e-05,4.56,2.84,0.29031944274902344,3.7945309117048964e-08,-1.0365853309631348,0.02294921875,0.10888671875,0.23454651102132618,0.0037584198887947767,0.22488714285181693,0.002866362268302896,-0.07106112890365142,-0.068774000338164,0.5,0.0,1.5148790583321932,1.514901714477511,0.01016078211273914,0.010161256343256745,0.0,-0.0002338365748957321,-0.00021801489295220026,0.0
1626093730.389086,-0.10096507180974687,2.8141868735855524e-05,4.51,2.67,1.5528659247365795e-08,-1.4445264184814732e-07,0.3658536672592163,-0.009765625,0.0166015625,0.1682791625829718,0.002755484114692785,0.23060226061894604,0.0017036581654265828,-0.07115736231774394,-0.0699376203409224,0.5,0.0,1.5162461050334606,1.5162705977734863,0.009898690299884426,0.009899369078031545,0.0,-0.0001973470396423557,-0.00023547594891545895,0.0
1626093730.449086,-0.10361364072858344,2.9923574348568533e-05,4.51,2.63,1.5516812723603834e-08,-1.4434245088068565e-07,1.2804877758026123,-0.00927734375,0.013671875,0.11664529319868679,0.0031857107425552113,0.18633694875292203,0.0033434432761856817,-0.07113224968332334,-0.07025644252346307,0.5,0.0,1.517662038930284,1.5176884993908866,0.010043693108222458,0.01004446375202401,0.0,-0.00015136893425569,-0.00021596203228553592,0.0
1626093730.509086,-0.10447808960166012,3.06813408106986e-05,4.52,2.58,0.2214774191379547,0.016563991084694862,1.585365891456604,0.14404296875,-0.21875,0.1384031156780246,0.005818659253548985,0.16307556770559847,0.002684496495424624,-0.07094172100289643,-0.0703930907917517,0.0,0.0,1.518665651676826,1.5186931603287217,0.009268696867033062,0.009269372148483394,0.0,-0.0001157160585913414,-0.0001775755226089253,0.0
1626093730.5690858,-0.10432224303955519,3.129302033368938e-05,4.49,2.5,1.223120538185185e-08,-1.1377865405393095e-07,0.8536585569381714,-0.0166015625,0.01513671875,0.10377700825809034,0.0012148376806171547,0.14027636518499098,0.0002553994373335046,-0.06928275023158698,-0.06891757912554344,0.0,0.0,1.5211587781160378,1.521188622793558,0.010320071040778402,0.010320611379895513,0.0,-3.8849004526167364e-05,-7.965867923331104e-05,0.0
1626093730.6290858,-0.10228043182636229,3.110656844367948e-05,4.48,2.48,1.223120538185185e-08,-1.1377865405393095e-07,1.2804877758026123,-0.005859375,0.015625,0.05340658340233464,0.0013730340471961766,0.10531168516436322,0.0012211110564143484,-0.06924532167826951,-0.06891410867609314,0.0,0.0,1.5220899824320129,1.5221204567280302,0.010161818247488569,0.010162272325691573,0.0,-2.3013384808221076e-05,-4.899567149355121e-05,0.0
1626093730.689086,-0.09920092978542464,3.079384298081064e-05,4.5,2.47,0.006928071845322847,0.2642053961753845,0.060975611209869385,-0.00244140625,-0.0458984375,0.03001833706100662,0.12869887717230044,0.06767378594994268,0.04235815481779644,-0.05353431071649392,-0.06547333215478139,0.0,1.0,1.522930570693297,1.5229613461519032,0.009929567383037194,0.009929909861304338,0.0,-1.6342986993146284e-05,-2.6676752001100456e-05,0.0
1626093730.755086,-0.09521468009546899,3.041549778510032e-05,4.49,2.46,0.004447254817932844,0.907346785068512,-45.060977935791016,0.056640625,0.0400390625,0.015201866688804865,0.2033303772352774,0.0371467211321542,0.1731939150704512,0.07965381792858235,-0.01616389605599903,0.0,1.0,1.5239539360755843,1.5239848266250473,0.010050878172018574,0.010051113952848774,0.0,-0.0001549291269618198,-3.9976509521273383e-05,0.0
1626093730.8090858,-0.09082373997236534,3.0036447339227186e-05,4.5,2.42,0.008756204508244991,0.9405432939529419,-54.63414764404297,-0.0546875,0.04541015625,0.006583590961016706,0.18581864918026803,0.016627642885846533,0.2138966261381035,0.2982821775644355,0.125895897148601,0.0,1.0,1.5250397747531101,1.525070662120375,0.009271801188884484,0.009271947463871447,0.0,-0.0003530887348859031,-0.00015698817959343563,0.0
1626093730.8690858,-0.08389268470354276,2.944991123614119e-05,4.5,2.33,0.004780902061611414,0.24743929505348206,-39.878047943115234,0.0498046875,0.08984375,-0.0016227817267762293,0.18892801257247377,-0.007406825385523508,0.2683372739446967,0.7514463909922116,0.6210853970279314,0.0,1.0,1.528440469001339,1.5284713655158508,0.01051680407698191,0.010516854709274066,0.0,-0.000584826609863822,-0.0004982586960084812,0.0
1626093730.929086,-0.07967525998342634,2.9113348779147044e-05,4.51,2.31,1.4391636327104607e-08,-1.3387568742473377e-07,2.317073106765747,-0.00244140625,0.017578125,-0.0010922607841495236,0.2514466785175758,-0.010654286371527884,0.2227643024906562,0.8092939063297039,0.7752919516641904,0.0,1.0,1.5298878220687484,1.5299187184064644,0.010217069024664028,0.010217096525192442,0.0,-0.00042981054911823675,-0.0005326457676135048,0.0
1626093730.989086,-0.07519833463722533,2.8751819150138162e-05,4.51,2.29,0.005866832099854946,0.8586504459381104,-44.63414764404297,0.0595703125,0.05078125,-0.0012994000202097128,0.27650556657065667,-0.010954230269435757,0.2675642417772019,0.8845646164733455,0.8434608392704562,0.0,1.0,1.5313097690214295,1.531340665344656,0.009948702736802022,0.009948717370090336,0.0,-0.0003503366289492959,-0.0004796389722093605,0.0
1626093731.0490859,-0.07060941395941264,2.837394233133963e-05,4.53,2.3,0.006220613606274128,0.8908504247665405,-52.92683029174805,-0.00634765625,0.02490234375,-0.0026608071222657317,0.24732013059874258,-0.011035846257016778,0.274209661379929,1.09499355381287,0.9725251958516127,0.0,1.0,1.5330675583470381,1.5330984535449537,0.010060073205854645,0.010060081206981281,0.0,-0.0003921652146615366,-0.00042884241442370816,0.0
1626093731.1090858,-0.06602632301197633,2.7977930030645748e-05,4.54,2.3,0.012684802524745464,0.9403364658355713,-56.09756088256836,-0.07177734375,0.02294921875,-0.004045892493311427,0.23642226350020965,-0.010623923482553192,0.28305626781646936,1.3222173942791573,1.1757214918009706,0.0,0.0,1.5345957334851252,1.5346266273156652,0.00927700338820738,0.009277008073541452,0.0,-0.0004792256244255914,-0.00044224087241804345,0.0
1626093731.1710858,-0.0591893689988527,2.7366250298670836e-05,4.49,2.3,1.1188061677103178e-07,1.0407499075881788e-06,1.402438998222351,-0.0146484375,0.0146484375,-0.0025773897351614324,0.03929265929556981,-0.01049589782038119,0.19526355643728924,1.4890923456359813,1.4984912455180095,0.0,0.0,1.538420502233124,1.5384513866913982,0.010385700146953008,0.010385703625230261,0.0,-0.0003692371230246885,-0.0004617127475384584,0.0
1626093731.255086,-0.05524250024678442,2.6971841188987833e-05,4.48,2.33,1.1188061677103178e-07,1.0407499075881788e-06,1.2804877758026123,-0.00537109375,0.0107421875,-0.0013019564497129812,0.010033763724552244,-0.008553669394561364,0.030069778703022777,1.4861154314077971,1.4970521914432353,0.0,0.0,1.5392859097889637,1.5393167907307108,0.010184486558512729,0.010184490044065936,0.0,-0.00026021197782982204,-0.0003865737167030848,0.0
1626093731.2890859,-0.05171228578447986,2.660312305541487e-05,4.49,2.33,0.004241849295794964,-0.5443665385246277,28.35365867614746,-0.0205078125,0.0625,0.00010021556054572335,-0.16351258674768715,-0.005950392671664291,-0.1311272419616023,1.4188660555862818,1.461627794785691,0.0,0.0,1.5405217400102067,1.540552616993442,0.010398510113358966,0.010398513742143633,0.0,-0.0001929332242053134,-0.00026712841551256733,0.0
1626093731.3490858,-0.048225377978403906,2.6210393485318725e-05,4.51,2.31,2.647023791269021e-07,2.462347538312315e-06,1.402438998222351,-0.009765625,-0.00634765625,0.0007392813686898373,-0.1089970799963574,-0.0037226537112238665,-0.1356855375940958,1.3595923845989002,1.384475501635593,0.0,0.0,1.5417906739404537,1.5418215488810296,0.010345919419569298,0.010345922988522287,0.0,-0.00013828117375852116,-0.0001920689044602085,0.0
1626093731.409086,-0.044845434592804795,2.5795977302404486e-05,4.53,2.31,2.6450044288139907e-07,2.4604692043794785e-06,1.4634146690368652,-0.0146484375,0.0166015625,0.0005204448561044157,-0.022568122157208218,-0.002780407796464875,-0.046315820056807296,1.3628426710699684,1.3695488952175483,0.0,0.0,1.54232260013703,1.5423534745255834,0.009833819321601898,0.009833822643685399,0.0,-0.00010314810308446709,-0.00014729154966180646,0.0
1626093731.469086,-0.03988569057136906,2.5154248504746932e-05,4.51,2.34,0.22810068726539612,-0.03308606892824173,-0.12195122241973877,0.14404296875,-0.21337890625,0.06513934039369713,0.001517178296048196,0.02263842988981153,-4.6218591201186636e-05,1.3710534307761075,1.3643811417962346,0.5,0.0,1.5438127971061952,1.543843670898978,0.00926488529604134,0.009264888844991256,0.0,-3.1356732517385944e-05,-4.803786696264959e-05,0.0
1626093731.5290859,-0.03733719405200018,2.4774416625516415e-05,4.5,2.3,0.5500521659851074,-0.03288096934556961,4.207317352294922,-0.1650390625,-0.13232421875,0.1182590624525961,0.0002825314162008213,0.07658061857396467,0.005355833561733338,1.373079243802008,1.369236956658787,0.5,0.0,1.5446872054538794,1.544718061906503,0.00940655781332141,0.009406590466003175,0.0,2.0002465488209517e-05,1.4532130896779028e-05,0.0
1626093731.5890858,-0.03483359338656199,2.436350579966915e-05,4.44,2.3,0.5064932107925415,-0.03292311728000641,-1.2195122241973877,0.595703125,-0.23876953125,0.19441080756640308,0.0025039134741884996,0.13896524022253243,0.0005223517652844192,1.368569853088826,1.3691857800968357,0.5,0.0,1.5458256772630254,1.5458563260940672,0.010394024065956249,0.010394151695454585,0.0,-0.0002004723605713443,-6.176103460310046e-05,0.0
1626093731.649086,-0.03241951471139388,2.392864895022554e-05,4.32,2.31,0.32765495777130127,0.016442464664578438,-0.9146341681480408,-0.09912109375,0.48681640625,0.2232350316690126,0.20554101647330403,0.19138855166664606,0.09609715206749292,1.3743587052176705,1.3803283106253772,0.0,1.0,1.5469038152134968,1.5469338313101755,0.010155806498568823,0.01015608878818048,0.0,-0.00028071827997078755,-0.00013142611831787798,0.0
1626093731.709086,-0.03012348044579072,2.347366565427049e-05,4.27,2.31,0.018754446879029274,0.24743817746639252,-18.719512939453125,-0.0224609375,0.20947265625,0.16939708177780563,0.1228163413778271,0.212568073353637,0.15598845534506633,1.392870394042096,1.3989812864014697,0.0,1.0,1.5483812696052848,1.5484100466527995,0.009953349437681697,0.009953834856555432,0.0,-0.0003164916492351284,-0.00022793508260353327,0.0
1626093731.755086,-0.028200256891740265,2.3087096423497927e-05,4.24,2.23,0.010888523422181606,0.9562394618988037,-52.9878044128418,0.05615234375,-0.05908203125,0.09953520955452516,0.10740933483440153,0.18053111215703904,0.12181867728376333,1.5209326564274261,1.4390136526511599,0.0,1.0,1.5498513673483094,1.5498787078662897,0.009642685741087625,0.009643293523380133,0.0,-0.0009591655529089403,-0.0003820764412040029,0.0
1626093731.769086,-0.026592616337943558,2.273244155269069e-05,4.24,2.18,0.008761217817664146,0.9411259293556213,-55.121952056884766,0.072265625,-0.05029296875,0.05390702201019202,0.11525121534800625,0.1267667806422934,0.1352442570627674,1.7420966419515638,1.5760755181291795,0.0,1.0,1.5511031483985447,1.5511294418304797,0.009271806662250316,0.009272370129988735,0.0,-0.0017362063271227973,-0.0009623567617333932,0.0
1626093731.8290858,-0.02497228322788379,2.2336847229843947e-05,4.21,2.22,0.0007595489732921124,-0.0659683346748352,4.207317352294922,-0.0234375,0.00146484375,0.02909622968350037,0.12993150737018755,0.07822206906842952,0.17985504790367654,1.944717681461696,1.777452767529437,0.0,1.0,1.5523952090272681,1.5524208812672065,0.009411904782822368,0.009412339657032242,0.0,-0.0019125610756064433,-0.0015500496167969093,0.0
1626093731.889086,-0.023380371390586425,2.1907867660077516e-05,4.17,2.22,0.0046191890724003315,-0.5774962902069092,13.536585807800293,-0.01171875,0.0205078125,0.015384605872513718,-0.023568937803418843,0.04217773209725504,0.1313746223013133,1.9631134262154433,1.9272578907859281,0.0,-1.0,1.5539533401026049,1.5539787922928876,0.010496286164203117,0.010496589211171864,0.0,-0.001502987634316365,-0.0017201174295213126,0.0
1626093731.949086,-0.02383819510808208,2.1453516478711005e-05,4.24,2.39,0.008001262322068214,-0.875161349773407,51.34146499633789,-0.0595703125,-0.01904296875,0.009950769293636752,-0.14393435789752343,0.020831898872230102,-0.08261701979956429,1.8141637461807605,1.9083456923903794,0.0,-1.0,1.5547426477254644,1.5547680805382937,0.010240649117361772,0.010240840173739316,0.0,-0.001120072788574682,-0.0015667186399507197,0.0
1626093732.009086,-0.025914870370302656,2.095712015663314e-05,4.24,2.25,0.008754698559641838,-0.9404065012931824,55.73170852661133,0.03662109375,-0.09033203125,0.007754064188382927,-0.14425009844812245,0.009112165999862365,-0.1602963699713793,1.5935754321038613,1.8023053135711957,0.0,-1.0,1.555656583034668,1.5556820148411556,0.009978818815736291,0.009978933398384487,0.0,-0.0009307732594276776,-0.0013309312516295983,0.0
1626093732.073416,-0.03038971479497699,2.0405757876638225e-05,4.19,2.28,1.281454728996323e-07,1.1920509450646932e-06,0.9756097793579102,0.0009765625,0.02685546875,0.0037911828537933734,0.001014429319938733,-0.0002099284875951451,-0.1676406374463001,1.3813135645289896,1.4345357018556846,0.0,1.0,1.5580481623088522,1.5580735878134182,0.009300448866662002,0.009300484621409968,0.0,-0.0005731845824139338,-0.0008791339792858584,0.0
1626093732.133416,-0.03262667384222283,2.0847167478742096e-05,4.2,2.25,0.0067661227658391,0.5945153832435608,-28.231708526611328,-0.03759765625,-0.033203125,0.0015292881551147517,0.1602036101568,-0.0028709772209715686,0.07205349779482512,1.4308629990047064,1.4162702936494915,0.0,1.0,1.5590060250298348,1.5590314473261566,0.009419032953594367,0.009419051461613419,0.0,-0.0004313812265930633,-0.000650784849275827,0.0
1626093732.193416,-0.034618743409582715,2.2364639490819427e-05,4.22,2.17,0.008387820795178413,0.9074809551239014,-52.5,-0.00927734375,0.01025390625,-0.0011622484117029298,0.13280529533239524,-0.005926976218932613,0.14486873399198072,1.5948880900984213,1.4917403011307289,0.0,1.0,1.5601816421073638,1.560207062654914,0.010399617271624082,0.010399626420955032,0.0,-0.00040700498147002866,-0.0004874828678585015,0.0
1626093732.259416,-0.036764198307895436,2.39357232405287e-05,4.25,2.28,0.008768958039581776,0.9410539269447327,-54.024391174316406,-0.0634765625,-0.06982421875,-0.0029358719791708035,0.13851903741897495,-0.007994215684485174,0.19187948010795863,1.8687409620137676,1.6926482156134495,0.0,1.0,1.5615294267291002,1.5615548450238779,0.010392049884022016,0.010392053552828162,0.0,-0.000407573124699795,-0.00040486274338334693,0.0
1626093732.313416,-0.03921702580267652,2.4600744725587674e-05,4.19,2.28,0.011927316896617413,0.8745554089546204,-53.04878234863281,0.01025390625,-0.02392578125,-0.0038464906672556623,0.0930856196071538,-0.008502691206897789,0.21758650189222264,2.0910479655269754,1.863128372636414,0.0,-1.0,1.5623886750432217,1.5624140913324533,0.009976756600009663,0.00997675872010236,0.0,-0.00042738238665382953,-0.00038599279441767876,0.0
1626093732.373416,-0.042810842841036215,2.5089335898364343e-05,4.14,2.3,0.019026018679142,-0.8091224431991577,36.158538818359375,-0.07177734375,0.05712890625,-0.0012050240025980085,-0.05883876907543512,-0.007744181731979573,-0.024846975649455916,2.127947945795228,2.136090507363321,0.0,-1.0,1.5646619824207633,1.5646873942366442,0.009958381396359569,0.009958382977157442,0.0,-0.0002908834972036949,-0.0003059449777487698,0.0
1626093732.4334161,-0.044136091867746564,2.4979153578467952e-05,4.13,2.3,0.011279871687293053,-0.9898947477340698,53.84146499633789,0.0361328125,0.02880859375,0.0015352004628175508,-0.07014378315695396,-0.005976322870361745,-0.07079844710007542,1.9866465545655685,2.097544267136332,0.0,-1.0,1.5652742166274909,1.565299627974218,0.01036259070429567,0.010362592521834305,0.0,-0.0003692761284480205,-0.0003034894484654849,0.0
1626093732.493416,-0.04451647029505718,2.484852415470462e-05,4.22,2.3,0.008752511814236641,-0.9410560131072998,56.585365295410156,-0.0400390625,0.01171875,0.0033487195199491354,-0.11008040149726846,-0.0029077232479419977,-0.16087666742950335,1.6976816578675642,1.9652363592701048,0.0,-1.0,1.5661462582469488,1.5661716692146845,0.010229617442855022,0.010229619486929097,0.0,-0.00041279689729932794,-0.0003339335387515348,0.0
1626093732.553416,-0.04387710675515486,2.4595877057519866e-05,4.22,2.23,1.3375782259572588e-07,-1.2442587831174023e-06,16.036584854125977,-0.05078125,-0.0205078125,0.003652366612424892,-0.13021033033651308,-0.00026039548674979316,-0.2434492830670735,1.5086944757697,1.6671254653367982,0.0,0.0,1.5677024955807675,1.5677279065447627,0.010223098189502759,0.010223100502353099,0.0,-0.00039097363844398477,-0.00036314076608544516,0.0
1626093732.613416,-0.04234462528069195,2.416811876543673e-05,4.24,2.16,1.9169733889157214e-07,-1.7832310277299257e-06,1.2804877758026123,0.00341796875,0.01171875,0.0021631285883019174,-0.021242853713658354,0.00044348057056213996,-0.06923732862241051,1.496673923396902,1.546559583020059,0.0,0.0,1.5687862807919617,1.5688116915848214,0.009979276152857293,0.009979278554727706,0.0,-0.0002660448306168407,-0.00031865534081122667,0.0
1626093732.675416,-0.03938139703885132,2.335658611752599e-05,4.25,2.12,0.010045832954347134,-0.7094613313674927,34.93902587890625,-0.0185546875,0.14013671875,0.0009208017346498403,-0.12491396252265949,-0.0001361581156150419,-0.09252146453200907,1.4825313330426562,1.500758538675939,0.0,0.0,1.5702228393632898,1.5702482497067958,0.00967697625737252,0.009676978538610381,0.0,-0.00010099573687332399,-0.0001630080291364389,0.0
1626093732.759416,-0.03665371634006152,2.2633427744310832e-05,4.23,2.18,1.1746216443953017e-07,1.0926712548098294e-06,-0.24390244483947754,-0.0009765625,0.03125,0.001668280184697088,-0.08175851074425226,-3.569078444067284e-06,-0.11857161409648569,1.389467795065926,1.444716347967085,0.0,0.0,1.5713232614832002,1.5713486716967875,0.010397508904857265,0.010397511027772893,0.0,-7.149897219676512e-05,-9.119666389501576e-05,0.0
1626093732.793416,-0.03389153479076992,2.17877146429646e-05,4.21,2.26,1.1746216443953017e-07,1.0926712548098294e-06,1.3414634466171265,0.0068359375,0.00244140625,0.0009338488535253915,-0.020362994083266382,8.282949758284132e-05,-0.03819551994416469,1.387160987650455,1.4048470049395854,0.0,0.0,1.5723849024423133,1.5724103123829676,0.0104014778148195,0.010401479655110226,0.0,-1.1838503120624637e-05,-2.3185085578659965e-05,0.0
1626093732.853416,-0.03084135602048143,2.0489839187286637e-05,4.22,2.26,0.08917573094367981,0.09905174374580383,0.6097561120986938,-0.015625,-0.03515625,0.06466326453438696,-0.002756005550797317,0.010202317704174325,-0.01233783774862102,1.3907762740758105,1.397718764412817,0.5,0.0,1.5729054554919464,1.5729308652164236,0.01004173734270542,0.01004173906928326,0.0,1.976184336743633e-05,1.3256568902844392e-05,0.0
1626093732.9134161,-0.02762605264754917,1.9255729577928525e-05,4.22,2.23,0.4772423505783081,-0.016509762033820152,4.02439022064209,1.08740234375,0.3232421875,0.1589016747987308,0.011392996204470403,0.0640304300365203,0.008626097597648862,1.400045639656064,1.3984600251695976,0.5,0.0,1.5737242239259912,1.5737496218313631,0.009995286158810695,0.009995301349756716,0.0,0.00012465592477342013,7.383183299245994e-05,0.0
1626093732.973416,-0.02275233615140901,1.7915543910341822e-05,4.06,2.36,0.5043366551399231,-0.016494646668434143,-4.45121955871582,-0.14599609375,0.396484375,0.3750540762192776,0.0006446926498660168,0.2947035181870078,-0.0008479505983706704,1.3925578152699631,1.3947966272493002,0.5,0.0,1.5761957053461284,1.5762197428586262,0.009295069324959644,0.009295619031291592,0.0,-0.0001397978084060971,-1.877287451576617e-05,0.0
1626093733.033416,-0.020093897585707662,1.763667054137806e-05,3.97,2.39,0.5082515478134155,-0.016566552221775055,0.24390244483947754,0.01416015625,-0.048828125,0.38993381970317675,-0.0002637623369417579,0.3705905223009139,0.006832310403575139,1.3918547112227977,1.3933476049425177,0.5,0.0,1.5783580822510557,1.5783788025557581,0.010395329570624636,0.01039654570296268,0.0,-0.0001242825133601208,-6.0307376091686674e-05,0.0
1626093733.093416,-0.01744304447454992,1.8014448261181735e-05,3.79,2.42,0.4978799521923065,0.033060863614082336,-3.5365853309631348,0.24267578125,-0.6103515625,0.40691905939488154,0.011936067748509582,0.4097642000008681,0.009762838596480044,1.3912721431835053,1.3923718473735647,0.5,0.0,1.5815812898366395,1.5815955403553565,0.010399249588150326,0.010401318968890126,0.0,-8.275423486627096e-05,-7.797704088472406e-05,0.0
1626093733.1534162,-0.014880172592152768,1.8468866374668174e-05,3.56,2.43,0.5139710903167725,0.03301694616675377,-0.6097561120986938,-0.4765625,-0.09716796875,0.4516233171733982,0.003704556303614554,0.445030189608071,0.008715713020874502,1.3907375714880887,1.3922937917946412,0.5,0.0,1.5844736783007864,1.5844818782371066,0.01025783020510405,0.010260386753060853,0.0,-8.688175308698589e-05,-7.255238492553381e-05,0.0
1626093733.213416,-0.012459375727179109,1.832823844330967e-05,3.44,2.45,0.5000230669975281,0.016357235610485077,-0.8536585569381714,0.57470703125,-0.1630859375,0.47155821358486355,0.021272726704669988,0.47607428835934074,0.0063721542251391795,1.3911728786621018,1.391692344093367,0.5,0.0,1.58773612212565,1.5877369447335499,0.00997934955973555,0.009982394874895679,0.0,-6.648248340434637e-05,-6.970267869352974e-05,0.0
1626093733.273416,-0.00896965746883428,1.7585363158347038e-05,3.19,2.47,0.5004197955131531,0.016509313136339188,0.792682945728302,-0.1572265625,0.1640625,0.48084156686754526,0.02057139159581883,0.5006437764870426,0.01723652443148508,1.3913443337620781,1.3923640469190175,0.5,0.0,1.5959930651082608,1.595973246843292,0.010882741106639079,0.01088696703455036,0.0,-2.6271836619077733e-05,-3.9474716769562786e-05,0.0
1626093733.333416,-0.007258550338095504,1.577562694072497e-05,3.07,2.5,0.5121874213218689,0.016575850546360016,1.7073171138763428,-0.01318359375,-0.18994140625,0.4891490389668297,0.016806894309942186,0.5082002376974876,0.012509702733891424,1.3914567180992699,1.392501604984027,0.5,0.0,1.5997875074940908,1.5997583243731808,0.00988571588639901,0.009890129951059454,0.0,-2.348260732624214e-05,-2.4128454417134858e-05,0.0
1626093733.393416,-0.005623668317485659,1.3724842970761812e-05,2.98,2.52,0.5047052502632141,-0.049555353820323944,0.6707317233085632,-0.03076171875,-0.1865234375,0.4966152224359583,0.01568872933118744,0.5148164923978655,0.01394534052768643,1.39047724711135,1.3920224590364323,0.5,0.0,1.6037677000693467,1.6037287672366336,0.009269328821525518,0.009273920936975238,0.0,-1.4095767966548786e-05,-1.9404788370853838e-05,0.0
1626093733.453416,-0.004072945409829516,1.2533286996367559e-05,2.87,2.51,0.5090445280075073,-0.016589641571044922,-0.6097561120986938,-0.2080078125,-0.470703125,0.49859767740328853,0.0061164422633828135,0.5211866215952756,0.012983326635731679,1.3901744120034658,1.3920608781812256,0.5,0.0,1.6076776992947246,1.6076294192375429,0.010272517079993038,0.010277420535523862,0.0,-1.2064474492317992e-05,-8.407721743134122e-06,0.0
1626093733.513416,-0.002609845635152702,1.2253918452862268e-05,2.73,2.53,0.4978593587875366,0.03271837159991264,2.317073106765747,0.1123046875,0.02734375,0.4998257673536817,0.009362364233839222,0.5227196475275866,0.009985860999783592,1.390594231854325,1.3913063665868106,0.5,0.0,1.6137697652141367,1.6137064945263049,0.01040291643797149,0.010408126462607655,0.0,-8.034155213856487e-07,3.663580728614984e-06,0.0
1626093733.573416,-0.000494933792843381,1.2792678152398847e-05,2.46,2.56,0.49394166469573975,-6.923866021679714e-05,4.2682929039001465,-0.33740234375,-0.22509765625,0.5008115781920304,0.01901640795260476,0.5193139545314804,0.011517193684741356,1.3904639165721266,1.3910646609766064,0.5,0.0,1.6207302914707933,1.6206508533158748,0.009770740411465896,0.009775909900022516,0.0,1.4949456045221093e-05,1.471038292502937e-05,0.0
1626093733.633416,0.0005519512326278363,1.3170598734724278e-05,2.39,2.58,0.49256885051727295,0.016510993242263794,4.0853657722473145,0.08203125,0.26953125,0.44569560362576294,0.010095349483300025,0.507553858996329,0.014541797480454153,1.3906692712102628,1.3918327082274944,0.5,0.0,1.6240376334622908,1.6239500407288234,0.009459304760375074,0.009464543518471676,0.0,2.1014193805854326e-05,2.4597735543673114e-05,0.0
1626093733.693416,0.0015510810490188137,1.3459511465215334e-05,2.18,2.58,0.447612464427948,-9.358978445561661e-07,0.4878048896789551,0.181640625,0.00341796875,0.3655975679051814,0.009024984534611242,0.44978477116496435,0.009042639479484518,1.390949387824194,1.391504665053927,0.0,0.0,1.6283859634277855,1.6282877372822013,0.010406119206509561,0.010411371286405464,0.0,2.3386702410668865e-06,2.2877603065311344e-05,0.0
1626093733.759416,0.0024934506099431935,1.3528751936916454e-05,2.11,2.68,0.06702309101819992,-0.03283265233039856,-2.4390244483947754,-0.005859375,0.103515625,0.2707152430026912,-5.253221931042945e-06,0.3802447200263144,0.00761760825076733,1.3895688057174918,1.3914355980906068,0.0,0.0,1.6312375850894631,1.631133159803135,0.010259640015365138,0.0102642481697321,0.0,-4.449164469915749e-06,1.337368551081279e-05,0.0
1626093733.813416,0.0033401502850003415,1.332700156302994e-05,1.96,2.56,2.4232124928857957e-07,-2.2541512407769915e-06,1.097561001777649,-0.02197265625,-0.005859375,0.1622742114323491,0.0023148410254535093,0.2868217736673437,0.0023851028977819795,1.3883608931574962,1.3896015307459932,0.0,0.0,1.633399497894056,1.6332906601272186,0.010011013410996791,0.010014757378880771,0.0,3.009567155741715e-05,1.6176138004578206e-05,0.0
1626093733.873416,0.004538413718907932,1.2900086028537762e-05,1.96,2.5,2.4195188075282203e-07,-2.2507151697936933e-06,1.2804877758026123,-0.001953125,0.0078125,0.05234589811345482,0.0019363985388003802,0.1029642717597349,0.001768518237004155,1.3882790837802972,1.388737696908733,0.0,0.0,1.6358969130764636,1.635784760162478,0.009363743162417905,0.009365636714914563,0.0,3.511361376980426e-05,3.65683691390475e-05,0.0
1626093733.9334161,0.0050913787005714,1.2423239316829863e-05,1.98,2.51,2.4269178311442374e-07,-2.2575979983230354e-06,1.2804877758026123,-0.01416015625,0.0146484375,0.02959058965780998,0.0017348388794787774,0.04488531494709418,0.0017091319340202752,1.388272149870959,1.3888272207956607,0.0,0.0,1.6368290543229973,1.636716572167621,0.009451870958132916,0.009453088203033191,0.0,3.3615026301310125e-05,3.934430282824992e-05,0.0
1626093733.993416,0.005592971935581585,1.1803271927633912e-05,1.95,2.53,2.4232124928857957e-07,-2.2541512407769915e-06,1.2804877758026123,-0.01318359375,0.00146484375,0.0165493796289631,0.0015909890739459688,0.005209509519264624,0.0014353076536403608,1.3882789429042859,1.3889512112391773,0.0,0.0,1.6378306769706468,1.6377181983770648,0.010403912559899697,0.010404665112033291,0.0,3.146626541139701e-05,3.934138478525853e-05,0.0
1626093734.053416,0.00603184801346202,1.104207437435184e-05,1.94,2.49,2.4195188075282203e-07,-2.2507151697936933e-06,1.2804877758026123,-0.0107421875,0.00927734375,0.008190142776960863,0.0013642555989276531,-0.017098599504375037,0.0013555982660859486,1.3882552737768312,1.3890506632316133,0.0,0.0,1.6387903116370826,1.638677961529248,0.010420192178564016,0.010420587253456728,0.0,2.7776312526611256e-05,3.6317964352447714e-05,0.0
1626093734.113416,0.0063874026294813,1.0105923700287962e-05,1.95,2.47,2.4232124928857957e-07,-2.2541512407769915e-06,1.2195122241973877,-0.0126953125,0.01220703125,0.004632298676747417,0.0013577971601519408,-0.022670043330954865,0.0011438392979507593,1.3882519779264912,1.3890762602480615,0.0,0.0,1.6393104893334915,1.6391981934240767,0.01001050661423838,0.010010759276416429,0.0,2.493932467482745e-05,3.360997740917826e-05,0.0
1626093734.175416,0.00683521349831379,7.846020784463808e-06,1.96,2.53,2.4195188075282203e-07,-2.2507151697936933e-06,1.2195122241973877,0.0009765625,0.00439453125,0.0014791009300695094,0.001841753745532141,-0.02624174326965523,0.0016372132887452066,1.388274027824738,1.3892301214476164,0.0,0.0,1.6410262635199355,1.6409140091400702,0.009769854224515866,0.009769931869812988,0.0,1.961334891370462e-05,2.5498282131222795e-05,0.0
1626093734.233416,0.006966073448916202,5.324861048305746e-06,1.95,2.53,2.4195188075282203e-07,-2.2507151697936933e-06,1.2195122241973877,0.0,0.01171875,0.0008360326992525439,0.001699195422239763,-0.023623965611250648,0.0015835132829848963,1.3882699154758666,1.389296488659637,0.0,0.0,1.6417783738917475,1.6416661053463424,0.009340826922220347,0.009340878650853401,0.0,1.7201162934366272e-05,2.1974635365720167e-05,0.0
1626093734.293416,0.0070611827108845995,3.3531934604950716e-06,1.95,2.54,2.4232124928857957e-07,-2.2541512407769915e-06,1.3414634466171265,-0.01171875,0.00244140625,0.0004678228995559991,0.001588741247519422,-0.024067706730464763,0.0012966348410922213,1.3882777351877396,1.389340448086562,0.0,0.0,1.6426622040156216,1.642549926145617,0.010409364656265935,0.010409409026914085,0.0,1.5071597657028446e-05,1.934008081520077e-05,0.0
