time,la_x,la_y,uwb_x,uwb_y,vel_linear_x,vel_angular_z,mpu_ang_vel_z,mpu_linear_acc_x,mpu_linear_acc_y,odom_linear_x,odom_angular_z,odom_filtered_linear_x,odom_filtered_angular_z,odom_yaw,odom_filtered_yaw
1624633349.557791,-1.1739107745812502e-07,-1.1222460152365682e-08,0.0,0.0,,,1.3414634466171265,-0.01513671875,0.0048828125,5.534727438285947e-13,0.0011042478146656147,-4.067611887249067e-08,0.0009722606935846573,0.5503952275785143,0.5511750602559852
1624633349.557791,-1.1739107745812502e-07,-1.1222460152365682e-08,0.0,0.0,,,1.3414634466171265,-0.01513671875,0.0048828125,5.534727438285947e-13,0.0011042478146656147,-4.067611887249067e-08,0.0009722606935846573,0.5503952275785143,0.5511750602559852
1624633349.557791,-1.1739107745812502e-07,-1.1222460152365682e-08,0.0,0.0,,,1.3414634466171265,-0.01513671875,0.0048828125,5.534727438285947e-13,0.0011042478146656147,-4.067611887249067e-08,0.0009722606935846573,0.5503952275785143,0.5511750602559852
1624633349.557791,-1.1739107745812502e-07,-1.1222460152365682e-08,0.0,0.0,,,1.3414634466171265,-0.01513671875,0.0048828125,5.534727438285947e-13,0.0011042478146656147,-4.067611887249067e-08,0.0009722606935846573,0.5503952275785143,0.5511750602559852
1624633349.617791,-1.1333660220277978e-07,-1.04498856190375e-08,0.0,0.0,,,1.3414634466171265,-0.01513671875,0.0048828125,5.536218905516108e-13,0.0014800086756380161,-3.999353367968596e-08,0.0011839758131038107,0.5504071655220979,0.5512022066035254
1624633349.617791,-1.1333660220277978e-07,-1.04498856190375e-08,0.0,0.0,2.672839627848589e-06,2.486362609488424e-05,1.3414634466171265,-0.01513671875,0.0048828125,5.536218905516108e-13,0.0014800086756380161,-3.999353367968596e-08,0.0011839758131038107,0.5504071655220979,0.5512022066035254
1624633349.617791,-1.1333660220277978e-07,-1.04498856190375e-08,0.0,0.0,2.672839627848589e-06,2.486362609488424e-05,1.3414634466171265,-0.01513671875,0.0048828125,5.536218905516108e-13,0.0014800086756380161,-3.999353367968596e-08,0.0011839758131038107,0.5504071655220979,0.5512022066035254
1624633349.617791,-1.1333660220277978e-07,-1.04498856190375e-08,5.82,4.94,2.672839627848589e-06,2.486362609488424e-05,1.3414634466171265,-0.01513671875,0.0048828125,5.536218905516108e-13,0.0014800086756380161,-3.999353367968596e-08,0.0011839758131038107,0.5504071655220979,0.5512022066035254
1624633349.617791,-1.1333660220277978e-07,-1.04498856190375e-08,5.82,4.94,2.672839627848589e-06,2.486362609488424e-05,1.3414634466171265,-0.01513671875,0.0048828125,5.536218905516108e-13,0.0014800086756380161,-3.999353367968596e-08,0.0011839758131038107,0.5504071655220979,0.5512022066035254
1624633349.6777909,-1.0930363143238099e-07,-9.693078023900169e-09,5.82,4.94,2.672839627848589e-06,2.486362609488424e-05,1.3414634466171265,-0.01513671875,0.0048828125,5.445411872515239e-13,0.0013875413621040925,-3.999353367968596e-08,0.0011839758131038107,0.5504076943560413,0.5512022066035254
1624633349.6777909,-1.0930363143238099e-07,-9.693078023900169e-09,5.82,4.94,2.672839627848589e-06,2.486362609488424e-05,1.4634146690368652,-0.02099609375,0.0078125,5.445411872515239e-13,0.0013875413621040925,-3.909722063680765e-08,0.0012272096490680896,0.5504076943560413,0.5512274331927719
1624633349.6777909,-1.0930363143238099e-07,-9.693078023900169e-09,5.82,4.94,2.6076486392412335e-06,2.425719503662549e-05,1.4634146690368652,-0.02099609375,0.0078125,5.445411872515239e-13,0.0013875413621040925,-3.909722063680765e-08,0.0012272096490680896,0.5504076943560413,0.5512274331927719
1624633349.6777909,-1.0930363143238099e-07,-9.693078023900169e-09,5.82,4.94,2.6076486392412335e-06,2.425719503662549e-05,1.4634146690368652,-0.02099609375,0.0078125,5.445411872515239e-13,0.0013875413621040925,-3.909722063680765e-08,0.0012272096490680896,0.5504076943560413,0.5512274331927719
1624633349.6777909,-1.0930363143238099e-07,-9.693078023900169e-09,5.82,4.94,2.6076486392412335e-06,2.425719503662549e-05,1.4634146690368652,-0.02099609375,0.0078125,5.445411872515239e-13,0.0013875413621040925,-3.909722063680765e-08,0.0012272096490680896,0.5504076943560413,0.5512274331927719
1624633349.719791,-1.0581064905053269e-07,-9.09560684856923e-09,5.82,4.94,2.6076486392412335e-06,2.425719503662549e-05,1.4634146690368652,-0.02099609375,0.0078125,5.292684248628578e-13,0.001644152777074738,-3.7022086892020065e-08,0.001390343577599985,0.5504821809346429,0.5512666413273362
1624633349.719791,-1.0581064905053269e-07,-9.09560684856923e-09,5.82,4.94,2.6076486392412335e-06,2.425719503662549e-05,1.4634146690368652,-0.02099609375,0.0078125,5.292684248628578e-13,0.001644152777074738,-3.7022086892020065e-08,0.001390343577599985,0.5504821809346429,0.5512666413273362
1624633349.719791,-1.0581064905053269e-07,-9.09560684856923e-09,5.82,4.94,2.6076486392412335e-06,2.425719503662549e-05,1.4634146690368652,-0.02099609375,0.0078125,5.292684248628578e-13,0.001644152777074738,-3.7022086892020065e-08,0.001390343577599985,0.5504821809346429,0.5512666413273362
1624633349.719791,-1.0581064905053269e-07,-9.09560684856923e-09,5.82,4.95,2.6076486392412335e-06,2.425719503662549e-05,1.4634146690368652,-0.02099609375,0.0078125,5.292684248628578e-13,0.001644152777074738,-3.7022086892020065e-08,0.001390343577599985,0.5504821809346429,0.5512666413273362
1624633349.719791,-1.0581064905053269e-07,-9.09560684856923e-09,5.82,4.95,2.6076486392412335e-06,2.425719503662549e-05,1.4634146690368652,-0.02099609375,0.0078125,5.292684248628578e-13,0.001644152777074738,-3.7022086892020065e-08,0.001390343577599985,0.5504821809346429,0.5512666413273362
1624633349.737791,-1.028397374320018e-07,-8.539487443249442e-09,5.82,4.95,2.6076486392412335e-06,2.425719503662549e-05,1.3414634466171265,-0.0146484375,0.00732421875,5.508794783900213e-13,0.0016107710269831531,-3.3262852197536974e-08,0.0014370245234221746,0.5504167184099558,0.55124699930263
1624633349.737791,-1.028397374320018e-07,-8.539487443249442e-09,5.82,4.95,2.6076486392412335e-06,2.425719503662549e-05,1.3414634466171265,-0.0146484375,0.00732421875,5.508794783900213e-13,0.0016107710269831531,-3.3262852197536974e-08,0.0014370245234221746,0.5504167184099558,0.55124699930263
1624633349.737791,-1.028397374320018e-07,-8.539487443249442e-09,5.82,4.95,2.6076486392412335e-06,2.425719503662549e-05,1.3414634466171265,-0.0146484375,0.00732421875,5.508794783900213e-13,0.0016107710269831531,-3.3262852197536974e-08,0.0014370245234221746,0.5504167184099558,0.55124699930263
1624633349.737791,-1.028397374320018e-07,-8.539487443249442e-09,5.82,4.95,2.6076486392412335e-06,2.425719503662549e-05,1.3414634466171265,-0.0146484375,0.00732421875,5.508794783900213e-13,0.0016107710269831531,-3.3262852197536974e-08,0.0014370245234221746,0.5504167184099558,0.55124699930263
1624633349.737791,-1.028397374320018e-07,-8.539487443249442e-09,5.82,4.95,2.6076486392412335e-06,2.425719503662549e-05,1.3414634466171265,-0.0146484375,0.00732421875,5.508794783900213e-13,0.0016107710269831531,-3.3262852197536974e-08,0.0014370245234221746,0.5504167184099558,0.55124699930263
1624633349.823791,-9.933304689940725e-08,-7.930583790958623e-09,5.82,4.95,2.6076486392412335e-06,2.425719503662549e-05,1.3414634466171265,-0.0146484375,0.00732421875,5.429415010778349e-13,0.0018388347241794743,-3.541082744471306e-08,0.001601908167488604,0.550471927342841,0.5513469468011829
1624633349.823791,-9.933304689940725e-08,-7.930583790958623e-09,5.82,4.95,2.6076486392412335e-06,2.425719503662549e-05,1.3414634466171265,-0.0146484375,0.00732421875,5.429415010778349e-13,0.0018388347241794743,-3.541082744471306e-08,0.001601908167488604,0.550471927342841,0.5513469468011829
1624633349.823791,-9.933304689940725e-08,-7.930583790958623e-09,5.82,4.95,2.6076486392412335e-06,2.425719503662549e-05,1.3414634466171265,-0.0146484375,0.00732421875,5.429415010778349e-13,0.0018388347241794743,-3.541082744471306e-08,0.001601908167488604,0.550471927342841,0.5513469468011829
1624633349.823791,-9.933304689940725e-08,-7.930583790958623e-09,5.83,4.96,2.6076486392412335e-06,2.425719503662549e-05,1.3414634466171265,-0.0146484375,0.00732421875,5.429415010778349e-13,0.0018388347241794743,-3.541082744471306e-08,0.001601908167488604,0.550471927342841,0.5513469468011829
1624633349.823791,-9.933304689940725e-08,-7.930583790958623e-09,5.83,4.96,2.6076486392412335e-06,2.425719503662549e-05,1.3414634466171265,-0.0146484375,0.00732421875,5.429415010778349e-13,0.0018388347241794743,-3.541082744471306e-08,0.001601908167488604,0.550471927342841,0.5513469468011829
1624633349.857791,-9.61822492783583e-08,-7.357329107800152e-09,5.83,4.96,2.6076486392412335e-06,2.425719503662549e-05,1.3414634466171265,-0.0146484375,0.00732421875,5.614476783708401e-13,0.0017715170133711954,-3.2775254658449104e-08,0.001630526959827116,0.5504259176920955,0.5513481850727013
1624633349.857791,-9.61822492783583e-08,-7.357329107800152e-09,5.83,4.96,2.6076486392412335e-06,2.425719503662549e-05,1.402438998222351,-0.01123046875,0.0048828125,5.614476783708401e-13,0.0017715170133711954,-3.2775254658449104e-08,0.001630526959827116,0.5504259176920955,0.5513481850727013
1624633349.857791,-9.61822492783583e-08,-7.357329107800152e-09,5.83,4.96,2.6076486392412335e-06,2.425719503662549e-05,1.402438998222351,-0.01123046875,0.0048828125,5.614476783708401e-13,0.0017715170133711954,-3.2775254658449104e-08,0.001630526959827116,0.5504259176920955,0.5513481850727013
1624633349.857791,-9.61822492783583e-08,-7.357329107800152e-09,5.83,4.96,2.6076486392412335e-06,2.425719503662549e-05,1.402438998222351,-0.01123046875,0.0048828125,5.614476783708401e-13,0.0017715170133711954,-3.2775254658449104e-08,0.001630526959827116,0.5504259176920955,0.5513481850727013
1624633349.857791,-9.61822492783583e-08,-7.357329107800152e-09,5.83,4.96,2.6076486392412335e-06,2.425719503662549e-05,1.402438998222351,-0.01123046875,0.0048828125,5.614476783708401e-13,0.0017715170133711954,-3.2775254658449104e-08,0.001630526959827116,0.5504259176920955,0.5513481850727013
1624633349.917791,-9.296417391657942e-08,-6.783352811948492e-09,5.83,4.96,2.6076486392412335e-06,2.425719503662549e-05,1.402438998222351,-0.01123046875,0.0048828125,5.616008830275293e-13,0.0016592722175663508,-3.24043947834681e-08,0.0015996107473359258,0.5504230267899864,0.551386283088564
1624633349.917791,-9.296417391657942e-08,-6.783352811948492e-09,5.83,4.96,2.6076486392412335e-06,2.425719503662549e-05,1.402438998222351,-0.01123046875,0.0048828125,5.616008830275293e-13,0.0016592722175663508,-3.24043947834681e-08,0.0015996107473359258,0.5504230267899864,0.551386283088564
1624633349.917791,-9.296417391657942e-08,-6.783352811948492e-09,5.83,4.96,2.6076486392412335e-06,2.425719503662549e-05,1.402438998222351,-0.01123046875,0.0048828125,5.616008830275293e-13,0.0016592722175663508,-3.24043947834681e-08,0.0015996107473359258,0.5504230267899864,0.551386283088564
1624633349.917791,-9.296417391657942e-08,-6.783352811948492e-09,5.83,4.95,2.6076486392412335e-06,2.425719503662549e-05,1.402438998222351,-0.01123046875,0.0048828125,5.616008830275293e-13,0.0016592722175663508,-3.24043947834681e-08,0.0015996107473359258,0.5504230267899864,0.551386283088564
1624633349.917791,-9.296417391657942e-08,-6.783352811948492e-09,5.83,4.95,2.6076486392412335e-06,2.425719503662549e-05,1.3414634466171265,-0.00732421875,0.00732421875,5.616008830275293e-13,0.0016592722175663508,-3.24043947834681e-08,0.0015996107473359258,0.5504230267899864,0.551386283088564
1624633349.9777908,-8.973109606283909e-08,-6.217915800555533e-09,5.83,4.95,2.6076486392412335e-06,2.425719503662549e-05,1.3414634466171265,-0.00732421875,0.00732421875,5.72758481379742e-13,0.0018835108990727862,-3.180696441233472e-08,0.0016667752529934956,0.5504325383144084,0.5514271518376831
1624633349.9777908,-8.973109606283909e-08,-6.217915800555533e-09,5.83,4.95,2.6076486392412335e-06,2.425719503662549e-05,1.3414634466171265,-0.00732421875,0.00732421875,5.72758481379742e-13,0.0018835108990727862,-3.180696441233472e-08,0.0016667752529934956,0.5504325383144084,0.5514271518376831
1624633349.9777908,-8.973109606283909e-08,-6.217915800555533e-09,5.83,4.95,2.6076486392412335e-06,2.425719503662549e-05,1.3414634466171265,-0.00732421875,0.00732421875,5.72758481379742e-13,0.0018835108990727862,-3.180696441233472e-08,0.0016667752529934956,0.5504325383144084,0.5514271518376831
1624633349.9777908,-8.973109606283909e-08,-6.217915800555533e-09,5.83,4.95,2.6076486392412335e-06,2.425719503662549e-05,1.3414634466171265,-0.00732421875,0.00732421875,5.72758481379742e-13,0.0018835108990727862,-3.180696441233472e-08,0.0016667752529934956,0.5504325383144084,0.5514271518376831
1624633349.9777908,-8.973109606283909e-08,-6.217915800555533e-09,5.83,4.95,2.6076486392412335e-06,2.425719503662549e-05,1.3414634466171265,-0.00732421875,0.00732421875,5.72758481379742e-13,0.0018835108990727862,-3.180696441233472e-08,0.0016667752529934956,0.5504325383144084,0.5514271518376831
1624633350.011791,-8.700770174375747e-08,-5.7798560631768986e-09,5.83,4.95,2.6076486392412335e-06,2.425719503662549e-05,1.3414634466171265,-0.00732421875,0.00732421875,5.580390974557592e-13,0.002052068455777287,-2.9660017688725144e-08,0.0018172835829330346,0.5505073918329048,0.5514625476812917
1624633350.011791,-8.700770174375747e-08,-5.7798560631768986e-09,5.83,4.95,2.6076486392412335e-06,2.425719503662549e-05,1.3414634466171265,-0.00732421875,0.00732421875,5.580390974557592e-13,0.002052068455777287,-2.9660017688725144e-08,0.0018172835829330346,0.5505073918329048,0.5514625476812917
1624633350.011791,-8.700770174375747e-08,-5.7798560631768986e-09,5.83,4.95,2.6076486392412335e-06,2.425719503662549e-05,1.3414634466171265,-0.00732421875,0.00732421875,5.580390974557592e-13,0.002052068455777287,-2.9660017688725144e-08,0.0018172835829330346,0.5505073918329048,0.5514625476812917
1624633350.011791,-8.700770174375747e-08,-5.7798560631768986e-09,5.84,4.93,2.6076486392412335e-06,2.425719503662549e-05,1.3414634466171265,-0.00732421875,0.00732421875,5.580390974557592e-13,0.002052068455777287,-2.9660017688725144e-08,0.0018172835829330346,0.5505073918329048,0.5514625476812917
1624633350.011791,-8.700770174375747e-08,-5.7798560631768986e-09,5.84,4.93,2.6076486392412335e-06,2.425719503662549e-05,1.2804877758026123,-0.01416015625,0.00244140625,5.841683573675781e-13,0.001993932989037126,-2.9660017688725144e-08,0.0018172835829330346,0.5504377624165043,0.5514625476812917
1624633350.037791,-8.457703735193362e-08,-5.358712756050392e-09,5.84,4.93,2.6076486392412335e-06,2.425719503662549e-05,1.2804877758026123,-0.01416015625,0.00244140625,5.841683573675781e-13,0.001993932989037126,-2.729016864995675e-08,0.0018462100479226763,0.5504377624165043,0.5514528200813504
1624633350.037791,-8.457703735193362e-08,-5.358712756050392e-09,5.84,4.93,2.6076486392412335e-06,2.425719503662549e-05,1.2804877758026123,-0.01416015625,0.00244140625,5.841683573675781e-13,0.001993932989037126,-2.729016864995675e-08,0.0018462100479226763,0.5504377624165043,0.5514528200813504
1624633350.037791,-8.457703735193362e-08,-5.358712756050392e-09,5.84,4.93,2.6076486392412335e-06,2.425719503662549e-05,1.2804877758026123,-0.01416015625,0.00244140625,5.841683573675781e-13,0.001993932989037126,-2.729016864995675e-08,0.0018462100479226763,0.5504377624165043,0.5514528200813504
1624633350.037791,-8.457703735193362e-08,-5.358712756050392e-09,5.84,4.93,2.6076486392412335e-06,2.425719503662549e-05,1.2804877758026123,-0.01416015625,0.00244140625,5.841683573675781e-13,0.001993932989037126,-2.729016864995675e-08,0.0018462100479226763,0.5504377624165043,0.5514528200813504
1624633350.037791,-8.457703735193362e-08,-5.358712756050392e-09,5.84,4.93,2.6076486392412335e-06,2.425719503662549e-05,1.2804877758026123,-0.01416015625,0.00244140625,5.772570918514952e-13,0.0020041318543573177,-2.729016864995675e-08,0.0018462100479226763,0.5504742725112609,0.5514528200813504
1624633350.1157908,-8.179292213245926e-08,-4.907372411765415e-09,5.84,4.93,2.6076486392412335e-06,2.425719503662549e-05,1.2804877758026123,-0.01416015625,0.00244140625,5.772570918514952e-13,0.0020041318543573177,-2.8578700840783182e-08,0.0018912677149308874,0.5504742725112609,0.551552899522834
1624633350.1157908,-8.179292213245926e-08,-4.907372411765415e-09,5.84,4.93,2.6076486392412335e-06,2.425719503662549e-05,1.2804877758026123,-0.01416015625,0.00244140625,5.772570918514952e-13,0.0020041318543573177,-2.8578700840783182e-08,0.0018912677149308874,0.5504742725112609,0.551552899522834
1624633350.1157908,-8.179292213245926e-08,-4.907372411765415e-09,5.83,4.93,2.6076486392412335e-06,2.425719503662549e-05,1.2804877758026123,-0.01416015625,0.00244140625,5.772570918514952e-13,0.0020041318543573177,-2.8578700840783182e-08,0.0018912677149308874,0.5504742725112609,0.551552899522834
1624633350.1157908,-8.179292213245926e-08,-4.907372411765415e-09,5.83,4.93,2.6076486392412335e-06,2.425719503662549e-05,1.2804877758026123,-0.01416015625,0.00244140625,5.772570918514952e-13,0.0020041318543573177,-2.8578700840783182e-08,0.0018912677149308874,0.5504742725112609,0.551552899522834
1624633350.1157908,-8.179292213245926e-08,-4.907372411765415e-09,5.83,4.93,2.6076486392412335e-06,2.425719503662549e-05,1.2804877758026123,-0.01416015625,0.00244140625,5.86558484405463e-13,0.001914626351626147,-2.8578700840783182e-08,0.0018912677149308874,0.5504357963563068,0.551552899522834
1624633350.157791,-7.918121693194862e-08,-4.472447982996887e-09,5.83,4.93,2.6076486392412335e-06,2.425719503662549e-05,1.3414634466171265,-0.00732421875,0.01220703125,5.86558484405463e-13,0.001914626351626147,-2.7036612867480258e-08,0.0018595353305710645,0.5504357963563068,0.5515629504466322
1624633350.157791,-7.918121693194862e-08,-4.472447982996887e-09,5.83,4.93,2.6076486392412335e-06,2.425719503662549e-05,1.3414634466171265,-0.00732421875,0.01220703125,5.86558484405463e-13,0.001914626351626147,-2.7036612867480258e-08,0.0018595353305710645,0.5504357963563068,0.5515629504466322
1624633350.157791,-7.918121693194862e-08,-4.472447982996887e-09,5.83,4.93,2.6076486392412335e-06,2.425719503662549e-05,1.3414634466171265,-0.00732421875,0.01220703125,5.86558484405463e-13,0.001914626351626147,-2.7036612867480258e-08,0.0018595353305710645,0.5504357963563068,0.5515629504466322
1624633350.157791,-7.918121693194862e-08,-4.472447982996887e-09,5.83,4.93,2.6076486392412335e-06,2.425719503662549e-05,1.3414634466171265,-0.00732421875,0.01220703125,5.86558484405463e-13,0.001914626351626147,-2.7036612867480258e-08,0.0018595353305710645,0.5504357963563068,0.5515629504466322
1624633350.157791,-7.918121693194862e-08,-4.472447982996887e-09,5.83,4.93,2.6076486392412335e-06,2.425719503662549e-05,1.3414634466171265,-0.00732421875,0.01220703125,5.799634919777549e-13,0.0019248060030215852,-2.7036612867480258e-08,0.0018595353305710645,0.5504388348054174,0.5515629504466322
1624633350.219791,-7.6497304245073e-08,-4.038104228578721e-09,5.83,4.93,2.672839627848589e-06,2.486362609488424e-05,1.3414634466171265,-0.00732421875,0.01220703125,5.799634919777549e-13,0.0019248060030215852,-2.682756165466214e-08,0.0018469356724608223,0.5504388348054174,0.5516098954131601
1624633350.219791,-7.6497304245073e-08,-4.038104228578721e-09,5.83,4.93,2.672839627848589e-06,2.486362609488424e-05,1.3414634466171265,-0.00732421875,0.01220703125,5.799634919777549e-13,0.0019248060030215852,-2.682756165466214e-08,0.0018469356724608223,0.5504388348054174,0.5516098954131601
1624633350.219791,-7.6497304245073e-08,-4.038104228578721e-09,5.83,4.93,2.672839627848589e-06,2.486362609488424e-05,1.3414634466171265,-0.00732421875,0.01220703125,5.799634919777549e-13,0.0019248060030215852,-2.682756165466214e-08,0.0018469356724608223,0.5504388348054174,0.5516098954131601
1624633350.219791,-7.6497304245073e-08,-4.038104228578721e-09,5.83,4.93,2.672839627848589e-06,2.486362609488424e-05,1.3414634466171265,-0.00732421875,0.01220703125,5.799634919777549e-13,0.0019248060030215852,-2.682756165466214e-08,0.0018469356724608223,0.5504388348054174,0.5516098954131601
1624633350.219791,-7.6497304245073e-08,-4.038104228578721e-09,5.83,4.93,2.672839627848589e-06,2.486362609488424e-05,1.3414634466171265,-0.00732421875,0.01220703125,5.670287529719088e-13,0.0018077242081685717,-2.682756165466214e-08,0.0018469356724608223,0.5504310063301208,0.5516098954131601
1624633350.277791,-7.383320187668172e-08,-3.6147757708201584e-09,5.83,4.93,2.672839627848589e-06,2.486362609488424e-05,1.402438998222351,-0.0126953125,0.0078125,5.670287529719088e-13,0.0018077242081685717,-2.617913538458805e-08,0.0017819356569528804,0.5504310063301208,0.551639585891418
1624633350.277791,-7.383320187668172e-08,-3.6147757708201584e-09,5.83,4.93,2.6076486392412335e-06,2.425719503662549e-05,1.402438998222351,-0.0126953125,0.0078125,5.670287529719088e-13,0.0018077242081685717,-2.617913538458805e-08,0.0017819356569528804,0.5504310063301208,0.551639585891418
1624633350.277791,-7.383320187668172e-08,-3.6147757708201584e-09,5.83,4.93,2.6076486392412335e-06,2.425719503662549e-05,1.402438998222351,-0.0126953125,0.0078125,5.670287529719088e-13,0.0018077242081685717,-2.617913538458805e-08,0.0017819356569528804,0.5504310063301208,0.551639585891418
1624633350.277791,-7.383320187668172e-08,-3.6147757708201584e-09,5.83,4.93,2.6076486392412335e-06,2.425719503662549e-05,1.402438998222351,-0.0126953125,0.0078125,5.670287529719088e-13,0.0018077242081685717,-2.617913538458805e-08,0.0017819356569528804,0.5504310063301208,0.551639585891418
1624633350.277791,-7.383320187668172e-08,-3.6147757708201584e-09,5.83,4.93,2.6076486392412335e-06,2.425719503662549e-05,1.402438998222351,-0.0126953125,0.0078125,5.670287529719088e-13,0.0018077242081685717,-2.617913538458805e-08,0.0017819356569528804,0.5504310063301208,0.551639585891418
1624633350.323791,-7.147326401005314e-08,-3.2830667986307263e-09,5.83,4.93,2.6076486392412335e-06,2.425719503662549e-05,1.402438998222351,-0.0126953125,0.0078125,5.461688951438105e-13,0.002040207393640967,-2.507068510937203e-08,0.0018702864921788804,0.5505302064557996,0.55169307223796
1624633350.323791,-7.147326401005314e-08,-3.2830667986307263e-09,5.83,4.93,2.6076486392412335e-06,2.425719503662549e-05,1.402438998222351,-0.0126953125,0.0078125,5.461688951438105e-13,0.002040207393640967,-2.507068510937203e-08,0.0018702864921788804,0.5505302064557996,0.55169307223796
1624633350.323791,-7.147326401005314e-08,-3.2830667986307263e-09,5.83,4.93,2.6076486392412335e-06,2.425719503662549e-05,1.402438998222351,-0.0126953125,0.0078125,5.461688951438105e-13,0.002040207393640967,-2.507068510937203e-08,0.0018702864921788804,0.5505302064557996,0.55169307223796
1624633350.323791,-7.147326401005314e-08,-3.2830667986307263e-09,5.83,4.93,2.6076486392412335e-06,2.425719503662549e-05,1.402438998222351,-0.0126953125,0.0078125,5.461688951438105e-13,0.002040207393640967,-2.507068510937203e-08,0.0018702864921788804,0.5505302064557996,0.55169307223796
1624633350.337791,-6.950272660854718e-08,-2.972323072292475e-09,5.83,4.93,2.6076486392412335e-06,2.425719503662549e-05,1.402438998222351,-0.0126953125,0.0078125,5.607162171064152e-13,0.0020066173813359993,-2.231318195349398e-08,0.0018773747528282563,0.5504373142681622,0.5516489891994403
1624633350.337791,-6.950272660854718e-08,-2.972323072292475e-09,5.83,4.93,2.6076486392412335e-06,2.425719503662549e-05,1.402438998222351,-0.02294921875,0.01708984375,5.607162171064152e-13,0.0020066173813359993,-2.231318195349398e-08,0.0018773747528282563,0.5504373142681622,0.5516489891994403
1624633350.337791,-6.950272660854718e-08,-2.972323072292475e-09,5.83,4.93,2.6076486392412335e-06,2.425719503662549e-05,1.402438998222351,-0.02294921875,0.01708984375,5.607162171064152e-13,0.0020066173813359993,-2.231318195349398e-08,0.0018773747528282563,0.5504373142681622,0.5516489891994403
1624633350.337791,-6.950272660854718e-08,-2.972323072292475e-09,5.83,4.93,2.6076486392412335e-06,2.425719503662549e-05,1.402438998222351,-0.02294921875,0.01708984375,5.607162171064152e-13,0.0020066173813359993,-2.231318195349398e-08,0.0018773747528282563,0.5504373142681622,0.5516489891994403
1624633350.337791,-6.950272660854718e-08,-2.972323072292475e-09,5.83,4.93,2.672839627848589e-06,2.486362609488424e-05,1.402438998222351,-0.02294921875,0.01708984375,5.607162171064152e-13,0.0020066173813359993,-2.231318195349398e-08,0.0018773747528282563,0.5504373142681622,0.5516489891994403
1624633350.397791,-6.740126377286903e-08,-2.650503625271793e-09,5.83,4.93,2.672839627848589e-06,2.486362609488424e-05,1.402438998222351,-0.02294921875,0.01708984375,5.458744383631523e-13,0.0018800322980996045,-2.2482260190555767e-08,0.0018327446902598596,0.5504338206680346,0.5516854635696667
1624633350.397791,-6.740126377286903e-08,-2.650503625271793e-09,5.83,4.93,2.672839627848589e-06,2.486362609488424e-05,1.402438998222351,-0.02294921875,0.01708984375,5.458744383631523e-13,0.0018800322980996045,-2.2482260190555767e-08,0.0018327446902598596,0.5504338206680346,0.5516854635696667
1624633350.397791,-6.740126377286903e-08,-2.650503625271793e-09,5.83,4.93,2.672839627848589e-06,2.486362609488424e-05,1.402438998222351,-0.02294921875,0.01708984375,5.458744383631523e-13,0.0018800322980996045,-2.2482260190555767e-08,0.0018327446902598596,0.5504338206680346,0.5516854635696667
1624633350.397791,-6.740126377286903e-08,-2.650503625271793e-09,5.83,4.92,2.672839627848589e-06,2.486362609488424e-05,1.402438998222351,-0.02294921875,0.01708984375,5.458744383631523e-13,0.0018800322980996045,-2.2482260190555767e-08,0.0018327446902598596,0.5504338206680346,0.5516854635696667
1624633350.397791,-6.740126377286903e-08,-2.650503625271793e-09,5.83,4.92,2.672839627848589e-06,2.486362609488424e-05,1.402438998222351,-0.02294921875,0.01708984375,5.458744383631523e-13,0.0018800322980996045,-2.2482260190555767e-08,0.0018327446902598596,0.5504338206680346,0.5516854635696667
1624633350.4577909,-6.522183358744004e-08,-2.326005046937197e-09,5.83,4.92,2.6076486392412335e-06,2.425719503662549e-05,1.3414634466171265,-0.0205078125,0.0078125,5.39431276166913e-13,0.002013017875581526,-2.2377183744969412e-08,0.0018541923069922406,0.5504392900586064,0.5517214054095582
1624633350.4577909,-6.522183358744004e-08,-2.326005046937197e-09,5.83,4.92,2.6076486392412335e-06,2.425719503662549e-05,1.3414634466171265,-0.0205078125,0.0078125,5.39431276166913e-13,0.002013017875581526,-2.2377183744969412e-08,0.0018541923069922406,0.5504392900586064,0.5517214054095582
1624633350.4577909,-6.522183358744004e-08,-2.326005046937197e-09,5.83,4.92,2.6076486392412335e-06,2.425719503662549e-05,1.3414634466171265,-0.0205078125,0.0078125,5.39431276166913e-13,0.002013017875581526,-2.2377183744969412e-08,0.0018541923069922406,0.5504392900586064,0.5517214054095582
1624633350.4577909,-6.522183358744004e-08,-2.326005046937197e-09,5.83,4.92,2.6076486392412335e-06,2.425719503662549e-05,1.3414634466171265,-0.0205078125,0.0078125,5.39431276166913e-13,0.002013017875581526,-2.2377183744969412e-08,0.0018541923069922406,0.5504392900586064,0.5517214054095582
1624633350.4577909,-6.522183358744004e-08,-2.326005046937197e-09,5.83,4.92,2.6076486392412335e-06,2.425719503662549e-05,1.3414634466171265,-0.0205078125,0.0078125,5.39431276166913e-13,0.002013017875581526,-2.2377183744969412e-08,0.0018541923069922406,0.5504392900586064,0.5517214054095582
1624633350.517791,-6.300826860194888e-08,-2.0055459541983593e-09,5.83,4.92,2.6076486392412335e-06,2.425719503662549e-05,1.3414634466171265,-0.0205078125,0.0078125,5.294555127336414e-13,0.0019431903530168413,-2.207288627835282e-08,0.0018447818455649832,0.5504369574506259,0.5517536467841739
1624633350.517791,-6.300826860194888e-08,-2.0055459541983593e-09,5.83,4.92,2.6076486392412335e-06,2.425719503662549e-05,1.3414634466171265,-0.0205078125,0.0078125,5.294555127336414e-13,0.0019431903530168413,-2.207288627835282e-08,0.0018447818455649832,0.5504369574506259,0.5517536467841739
1624633350.517791,-6.300826860194888e-08,-2.0055459541983593e-09,5.83,4.92,2.6076486392412335e-06,2.425719503662549e-05,1.3414634466171265,-0.0205078125,0.0078125,5.294555127336414e-13,0.0019431903530168413,-2.207288627835282e-08,0.0018447818455649832,0.5504369574506259,0.5517536467841739
1624633350.517791,-6.300826860194888e-08,-2.0055459541983593e-09,5.82,4.92,2.6076486392412335e-06,2.425719503662549e-05,1.3414634466171265,-0.0205078125,0.0078125,5.294555127336414e-13,0.0019431903530168413,-2.207288627835282e-08,0.0018447818455649832,0.5504369574506259,0.5517536467841739
1624633350.517791,-6.300826860194888e-08,-2.0055459541983593e-09,5.82,4.92,2.6076486392412335e-06,2.425719503662549e-05,1.4634146690368652,-0.009765625,0.01513671875,5.294555127336414e-13,0.0019431903530168413,-2.207288627835282e-08,0.0018447818455649832,0.5504369574506259,0.5517536467841739
1624633350.577791,-6.079428007549931e-08,-1.6940111557099636e-09,5.82,4.92,2.6076486392412335e-06,2.425719503662549e-05,1.4634146690368652,-0.009765625,0.01513671875,5.125211142639757e-13,0.001821404450781638,-2.162937073104874e-08,0.0017784659238920667,0.5504321360063942,0.5517787210200958
1624633350.577791,-6.079428007549931e-08,-1.6940111557099636e-09,5.82,4.92,2.6076486392412335e-06,2.425719503662549e-05,1.4634146690368652,-0.009765625,0.01513671875,5.125211142639757e-13,0.001821404450781638,-2.162937073104874e-08,0.0017784659238920667,0.5504321360063942,0.5517787210200958
1624633350.577791,-6.079428007549931e-08,-1.6940111557099636e-09,5.82,4.92,2.6076486392412335e-06,2.425719503662549e-05,1.4634146690368652,-0.009765625,0.01513671875,5.125211142639757e-13,0.001821404450781638,-2.162937073104874e-08,0.0017784659238920667,0.5504321360063942,0.5517787210200958
1624633350.577791,-6.079428007549931e-08,-1.6940111557099636e-09,5.82,4.92,2.6076486392412335e-06,2.425719503662549e-05,1.4634146690368652,-0.009765625,0.01513671875,5.125211142639757e-13,0.001821404450781638,-2.162937073104874e-08,0.0017784659238920667,0.5504321360063942,0.5517787210200958
1624633350.577791,-6.079428007549931e-08,-1.6940111557099636e-09,5.82,4.92,2.6076486392412335e-06,2.425719503662549e-05,1.4634146690368652,-0.009765625,0.01513671875,5.125211142639757e-13,0.001821404450781638,-2.162937073104874e-08,0.0017784659238920667,0.5504321360063942,0.5517787210200958
1624633350.6157908,-5.890209009681817e-08,-1.4564092778542683e-09,5.82,4.92,2.6076486392412335e-06,2.425719503662549e-05,1.4634146690368652,-0.009765625,0.01513671875,4.951587182485295e-13,0.0019120593193458066,-2.033063899454639e-08,0.0018088440622448523,0.5505078543913529,0.5518064634971268
1624633350.6157908,-5.890209009681817e-08,-1.4564092778542683e-09,5.82,4.92,2.6076486392412335e-06,2.425719503662549e-05,1.4634146690368652,-0.009765625,0.01513671875,4.951587182485295e-13,0.0019120593193458066,-2.033063899454639e-08,0.0018088440622448523,0.5505078543913529,0.5518064634971268
1624633350.6157908,-5.890209009681817e-08,-1.4564092778542683e-09,5.82,4.92,2.6076486392412335e-06,2.425719503662549e-05,1.4634146690368652,-0.009765625,0.01513671875,4.951587182485295e-13,0.0019120593193458066,-2.033063899454639e-08,0.0018088440622448523,0.5505078543913529,0.5518064634971268
1624633350.6157908,-5.890209009681817e-08,-1.4564092778542683e-09,5.82,4.91,2.6076486392412335e-06,2.425719503662549e-05,1.4634146690368652,-0.009765625,0.01513671875,4.951587182485295e-13,0.0019120593193458066,-2.033063899454639e-08,0.0018088440622448523,0.5505078543913529,0.5518064634971268
1624633350.6157908,-5.890209009681817e-08,-1.4564092778542683e-09,5.82,4.91,2.6076486392412335e-06,2.425719503662549e-05,1.4634146690368652,-0.009765625,0.01513671875,4.951587182485295e-13,0.0019120593193458066,-2.033063899454639e-08,0.0018088440622448523,0.5505078543913529,0.5518064634971268
1624633350.637791,-5.7253416567251066e-08,-1.2278320210838014e-09,5.82,4.91,2.6076486392412335e-06,2.425719503662549e-05,1.3414634466171265,-0.01806640625,0.00244140625,4.984782921669708e-13,0.001865243215202989,-1.8485811532550436e-08,0.0017861132657778524,0.5504332241964722,0.5517674057481065
1624633350.637791,-5.7253416567251066e-08,-1.2278320210838014e-09,5.82,4.91,2.6076486392412335e-06,2.425719503662549e-05,1.3414634466171265,-0.01806640625,0.00244140625,4.984782921669708e-13,0.001865243215202989,-1.8485811532550436e-08,0.0017861132657778524,0.5504332241964722,0.5517674057481065
1624633350.637791,-5.7253416567251066e-08,-1.2278320210838014e-09,5.82,4.91,2.6076486392412335e-06,2.425719503662549e-05,1.3414634466171265,-0.01806640625,0.00244140625,4.984782921669708e-13,0.001865243215202989,-1.8485811532550436e-08,0.0017861132657778524,0.5504332241964722,0.5517674057481065
1624633350.637791,-5.7253416567251066e-08,-1.2278320210838014e-09,5.82,4.91,2.6076486392412335e-06,2.425719503662549e-05,1.3414634466171265,-0.01806640625,0.00244140625,4.984782921669708e-13,0.001865243215202989,-1.8485811532550436e-08,0.0017861132657778524,0.5504332241964722,0.5517674057481065
1624633350.637791,-5.7253416567251066e-08,-1.2278320210838014e-09,5.82,4.91,2.6076486392412335e-06,2.425719503662549e-05,1.3414634466171265,-0.01806640625,0.00244140625,4.984782921669708e-13,0.001865243215202989,-1.8485811532550436e-08,0.0017861132657778524,0.5504332241964722,0.5517674057481065
1624633350.719791,-5.533580377552783e-08,-9.86976976726166e-10,5.82,4.91,2.6076486392412335e-06,2.425719503662549e-05,1.3414634466171265,-0.01806640625,0.00244140625,4.703036262123993e-13,0.001800040649151571,-1.9522958652957723e-08,0.0017590691295363337,0.5504705047803596,0.5518554181987425
1624633350.719791,-5.533580377552783e-08,-9.86976976726166e-10,5.82,4.91,2.6076486392412335e-06,2.425719503662549e-05,1.3414634466171265,-0.01806640625,0.00244140625,4.703036262123993e-13,0.001800040649151571,-1.9522958652957723e-08,0.0017590691295363337,0.5504705047803596,0.5518554181987425
1624633350.719791,-5.533580377552783e-08,-9.86976976726166e-10,5.82,4.91,2.6076486392412335e-06,2.425719503662549e-05,1.3414634466171265,-0.01806640625,0.00244140625,4.703036262123993e-13,0.001800040649151571,-1.9522958652957723e-08,0.0017590691295363337,0.5504705047803596,0.5518554181987425
1624633350.719791,-5.533580377552783e-08,-9.86976976726166e-10,5.83,4.92,2.6076486392412335e-06,2.425719503662549e-05,1.3414634466171265,-0.01806640625,0.00244140625,4.703036262123993e-13,0.001800040649151571,-1.9522958652957723e-08,0.0017590691295363337,0.5504705047803596,0.5518554181987425
1624633350.719791,-5.533580377552783e-08,-9.86976976726166e-10,5.83,4.92,2.6076486392412335e-06,2.425719503662549e-05,1.3414634466171265,-0.01806640625,0.00244140625,4.703036262123993e-13,0.001800040649151571,-1.9522958652957723e-08,0.0017590691295363337,0.5504705047803596,0.5518554181987425
1624633350.757791,-5.3575228602578764e-08,-7.565469122398948e-10,5.83,4.92,2.6076486392412335e-06,2.425719503662549e-05,1.402438998222351,-0.01123046875,0.0166015625,4.623459997935952e-13,0.001726664554190928,-1.8269248227559563e-08,0.0016976425468875624,0.5504276570167433,0.5518342299347001
1624633350.757791,-5.3575228602578764e-08,-7.565469122398948e-10,5.83,4.92,2.6076486392412335e-06,2.425719503662549e-05,1.402438998222351,-0.01123046875,0.0166015625,4.623459997935952e-13,0.001726664554190928,-1.8269248227559563e-08,0.0016976425468875624,0.5504276570167433,0.5518342299347001
1624633350.757791,-5.3575228602578764e-08,-7.565469122398948e-10,5.83,4.92,2.6076486392412335e-06,2.425719503662549e-05,1.402438998222351,-0.01123046875,0.0166015625,4.623459997935952e-13,0.001726664554190928,-1.8269248227559563e-08,0.0016976425468875624,0.5504276570167433,0.5518342299347001
1624633350.757791,-5.3575228602578764e-08,-7.565469122398948e-10,5.83,4.92,2.6076486392412335e-06,2.425719503662549e-05,1.402438998222351,-0.01123046875,0.0166015625,4.623459997935952e-13,0.001726664554190928,-1.8269248227559563e-08,0.0016976425468875624,0.5504276570167433,0.5518342299347001
1624633350.757791,-5.3575228602578764e-08,-7.565469122398948e-10,5.83,4.92,2.6076486392412335e-06,2.425719503662549e-05,1.402438998222351,-0.01123046875,0.0166015625,4.623459997935952e-13,0.001726664554190928,-1.8269248227559563e-08,0.0016976425468875624,0.5504276570167433,0.5518342299347001
1624633350.823791,-5.1734822046691145e-08,-5.280997536840804e-10,5.83,4.92,2.6076486392412335e-06,2.425719503662549e-05,1.402438998222351,-0.01123046875,0.0166015625,4.4429538883339894e-13,0.002039776284268468,-1.8292988327371448e-08,0.0018029416551530043,0.5504479287964334,0.551876912799041
1624633350.823791,-5.1734822046691145e-08,-5.280997536840804e-10,5.83,4.92,2.6076486392412335e-06,2.425719503662549e-05,1.402438998222351,-0.01123046875,0.0166015625,4.4429538883339894e-13,0.002039776284268468,-1.8292988327371448e-08,0.0018029416551530043,0.5504479287964334,0.551876912799041
1624633350.823791,-5.1734822046691145e-08,-5.280997536840804e-10,5.83,4.92,2.6076486392412335e-06,2.425719503662549e-05,1.402438998222351,-0.01123046875,0.0166015625,4.4429538883339894e-13,0.002039776284268468,-1.8292988327371448e-08,0.0018029416551530043,0.5504479287964334,0.551876912799041
1624633350.823791,-5.1734822046691145e-08,-5.280997536840804e-10,5.82,4.93,2.6076486392412335e-06,2.425719503662549e-05,1.402438998222351,-0.01123046875,0.0166015625,4.4429538883339894e-13,0.002039776284268468,-1.8292988327371448e-08,0.0018029416551530043,0.5504479287964334,0.551876912799041
1624633350.823791,-5.1734822046691145e-08,-5.280997536840804e-10,5.82,4.93,2.6076486392412335e-06,2.425719503662549e-05,1.402438998222351,-0.01123046875,0.0166015625,4.4429538883339894e-13,0.002039776284268468,-1.8292988327371448e-08,0.0018029416551530043,0.5504479287964334,0.551876912799041
1624633350.877791,-4.9944142089463176e-08,-3.0909632384253916e-10,5.82,4.93,2.6076486392412335e-06,2.425719503662549e-05,1.402438998222351,-0.01123046875,0.0166015625,4.2814591882516394e-13,0.0019239212222896048,-1.766700895578553e-08,0.0017871499425079825,0.5504345582275008,0.5518852856994138
1624633350.877791,-4.9944142089463176e-08,-3.0909632384253916e-10,5.82,4.93,2.6076486392412335e-06,2.425719503662549e-05,1.3414634466171265,-0.00732421875,0.00146484375,4.2814591882516394e-13,0.0019239212222896048,-1.766700895578553e-08,0.0017871499425079825,0.5504345582275008,0.5518852856994138
1624633350.877791,-4.9944142089463176e-08,-3.0909632384253916e-10,5.82,4.93,2.6076486392412335e-06,2.425719503662549e-05,1.3414634466171265,-0.00732421875,0.00146484375,4.2814591882516394e-13,0.0019239212222896048,-1.766700895578553e-08,0.0017871499425079825,0.5504345582275008,0.5518852856994138
1624633350.877791,-4.9944142089463176e-08,-3.0909632384253916e-10,5.82,4.93,2.6076486392412335e-06,2.425719503662549e-05,1.3414634466171265,-0.00732421875,0.00146484375,4.2814591882516394e-13,0.0019239212222896048,-1.766700895578553e-08,0.0017871499425079825,0.5504345582275008,0.5518852856994138
1624633350.877791,-4.9944142089463176e-08,-3.0909632384253916e-10,5.82,4.93,2.6076486392412335e-06,2.425719503662549e-05,1.3414634466171265,-0.00732421875,0.00146484375,4.2814591882516394e-13,0.0019239212222896048,-1.766700895578553e-08,0.0017871499425079825,0.5504345582275008,0.5518852856994138
1624633350.877791,-4.8653202683544965e-08,-1.512120891736217e-10,5.82,4.93,2.6076486392412335e-06,2.425719503662549e-05,1.3414634466171265,-0.00732421875,0.00146484375,4.2814591882516394e-13,0.0019239212222896048,-1.5201707043929748e-08,0.0017845982022163995,0.5504345582275008,0.5518067433890959
1624633350.877791,-4.8653202683544965e-08,-1.512120891736217e-10,5.82,4.93,2.6076486392412335e-06,2.425719503662549e-05,1.3414634466171265,-0.00732421875,0.00146484375,4.2814591882516394e-13,0.0019239212222896048,-1.5201707043929748e-08,0.0017845982022163995,0.5504345582275008,0.5518067433890959
1624633350.877791,-4.8653202683544965e-08,-1.512120891736217e-10,5.82,4.93,2.6076486392412335e-06,2.425719503662549e-05,1.3414634466171265,-0.00732421875,0.00146484375,4.2814591882516394e-13,0.0019239212222896048,-1.5201707043929748e-08,0.0017845982022163995,0.5504345582275008,0.5518067433890959
1624633350.877791,-4.8653202683544965e-08,-1.512120891736217e-10,5.82,4.94,2.6076486392412335e-06,2.425719503662549e-05,1.3414634466171265,-0.00732421875,0.00146484375,4.2814591882516394e-13,0.0019239212222896048,-1.5201707043929748e-08,0.0017845982022163995,0.5504345582275008,0.5518067433890959
1624633350.877791,-4.8653202683544965e-08,-1.512120891736217e-10,5.82,4.94,2.6076486392412335e-06,2.425719503662549e-05,1.3414634466171265,-0.01123046875,0.01806640625,4.2814591882516394e-13,0.0019239212222896048,-1.5201707043929748e-08,0.0017845982022163995,0.5504345582275008,0.5518067433890959
1624633350.9377909,-4.724908631161448e-08,1.3528152114775021e-11,5.82,4.94,2.6076486392412335e-06,2.425719503662549e-05,1.3414634466171265,-0.01123046875,0.01806640625,4.1357321738180794e-13,0.002019819838987983,-1.5447181409811336e-08,0.0018330848462544949,0.5504382318119737,0.5518367223390084
1624633350.9377909,-4.724908631161448e-08,1.3528152114775021e-11,5.82,4.94,2.6076486392412335e-06,2.425719503662549e-05,1.3414634466171265,-0.01123046875,0.01806640625,4.1357321738180794e-13,0.002019819838987983,-1.5447181409811336e-08,0.0018330848462544949,0.5504382318119737,0.5518367223390084
1624633350.9377909,-4.724908631161448e-08,1.3528152114775021e-11,5.82,4.94,2.6076486392412335e-06,2.425719503662549e-05,1.3414634466171265,-0.01123046875,0.01806640625,4.1357321738180794e-13,0.002019819838987983,-1.5447181409811336e-08,0.0018330848462544949,0.5504382318119737,0.5518367223390084
1624633350.9377909,-4.724908631161448e-08,1.3528152114775021e-11,5.82,4.94,2.672839627848589e-06,2.486362609488424e-05,1.3414634466171265,-0.01123046875,0.01806640625,4.1357321738180794e-13,0.002019819838987983,-1.5447181409811336e-08,0.0018330848462544949,0.5504382318119737,0.5518367223390084
1624633350.9377909,-4.724908631161448e-08,1.3528152114775021e-11,5.82,4.94,2.672839627848589e-06,2.486362609488424e-05,1.3414634466171265,-0.01123046875,0.01806640625,4.1357321738180794e-13,0.002019819838987983,-1.5447181409811336e-08,0.0018330848462544949,0.5504382318119737,0.5518367223390084
1624633351.011791,-4.568401099586877e-08,1.8174971382877524e-10,5.82,4.94,2.672839627848589e-06,2.486362609488424e-05,1.3414634466171265,-0.01123046875,0.01806640625,3.9020328242439075e-13,0.0018357385473970027,-1.596128273540924e-08,0.0017953276108767981,0.5504594102166682,0.5519045766742847
1624633351.011791,-4.568401099586877e-08,1.8174971382877524e-10,5.82,4.94,2.672839627848589e-06,2.486362609488424e-05,1.3414634466171265,-0.01123046875,0.01806640625,3.9020328242439075e-13,0.0018357385473970027,-1.596128273540924e-08,0.0017953276108767981,0.5504594102166682,0.5519045766742847
1624633351.011791,-4.568401099586877e-08,1.8174971382877524e-10,5.83,4.95,2.672839627848589e-06,2.486362609488424e-05,1.3414634466171265,-0.01123046875,0.01806640625,3.9020328242439075e-13,0.0018357385473970027,-1.596128273540924e-08,0.0017953276108767981,0.5504594102166682,0.5519045766742847
1624633351.011791,-4.568401099586877e-08,1.8174971382877524e-10,5.83,4.95,2.672839627848589e-06,2.486362609488424e-05,1.3414634466171265,-0.01123046875,0.01806640625,3.9020328242439075e-13,0.0018357385473970027,-1.596128273540924e-08,0.0017953276108767981,0.5504594102166682,0.5519045766742847
1624633351.011791,-4.568401099586877e-08,1.8174971382877524e-10,5.83,4.95,2.6076486392412335e-06,2.425719503662549e-05,1.3414634466171265,-0.005859375,0.00537109375,3.9020328242439075e-13,0.0018357385473970027,-1.596128273540924e-08,0.0017953276108767981,0.5504594102166682,0.5519045766742847
1624633351.057791,-4.419379300683138e-08,3.4416046089151475e-10,5.83,4.95,2.6076486392412335e-06,2.425719503662549e-05,1.3414634466171265,-0.005859375,0.00537109375,3.787314576212891e-13,0.0017466219181089928,-1.5223368684506947e-08,0.0017238331758040668,0.5504292733143914,0.5518963720008523
1624633351.057791,-4.419379300683138e-08,3.4416046089151475e-10,5.83,4.95,2.6076486392412335e-06,2.425719503662549e-05,1.3414634466171265,-0.005859375,0.00537109375,3.787314576212891e-13,0.0017466219181089928,-1.5223368684506947e-08,0.0017238331758040668,0.5504292733143914,0.5518963720008523
1624633351.057791,-4.419379300683138e-08,3.4416046089151475e-10,5.83,4.95,2.6076486392412335e-06,2.425719503662549e-05,1.3414634466171265,-0.005859375,0.00537109375,3.787314576212891e-13,0.0017466219181089928,-1.5223368684506947e-08,0.0017238331758040668,0.5504292733143914,0.5518963720008523
1624633351.057791,-4.419379300683138e-08,3.4416046089151475e-10,5.83,4.95,2.6076486392412335e-06,2.425719503662549e-05,1.3414634466171265,-0.005859375,0.00537109375,3.787314576212891e-13,0.0017466219181089928,-1.5223368684506947e-08,0.0017238331758040668,0.5504292733143914,0.5518963720008523
1624633351.057791,-4.419379300683138e-08,3.4416046089151475e-10,5.83,4.95,2.6076486392412335e-06,2.425719503662549e-05,1.3414634466171265,-0.005859375,0.00537109375,3.640643176682826e-13,0.001966409519591625,-1.5223368684506947e-08,0.0017238331758040668,0.5504341169031466,0.5518963720008523
1624633351.117791,-4.26847146263355e-08,5.018194881977571e-10,5.83,4.95,2.545561756051029e-06,2.3679644073126838e-05,1.3414634466171265,-0.005859375,0.00537109375,3.640643176682826e-13,0.001966409519591625,-1.4997479475380095e-08,0.0017773550444767016,0.5504341169031466,0.5519160586746936
1624633351.117791,-4.26847146263355e-08,5.018194881977571e-10,5.83,4.95,2.545561756051029e-06,2.3679644073126838e-05,1.3414634466171265,-0.005859375,0.00537109375,3.640643176682826e-13,0.001966409519591625,-1.4997479475380095e-08,0.0017773550444767016,0.5504341169031466,0.5519160586746936
1624633351.117791,-4.26847146263355e-08,5.018194881977571e-10,5.78,4.89,2.545561756051029e-06,2.3679644073126838e-05,1.3414634466171265,-0.005859375,0.00537109375,3.640643176682826e-13,0.001966409519591625,-1.4997479475380095e-08,0.0017773550444767016,0.5504341169031466,0.5519160586746936
1624633351.117791,-4.26847146263355e-08,5.018194881977571e-10,5.78,4.89,2.545561756051029e-06,2.3679644073126838e-05,1.3414634466171265,-0.005859375,0.00537109375,3.640643176682826e-13,0.001966409519591625,-1.4997479475380095e-08,0.0017773550444767016,0.5504341169031466,0.5519160586746936
1624633351.117791,-4.26847146263355e-08,5.018194881977571e-10,5.78,4.89,2.545561756051029e-06,2.3679644073126838e-05,1.3414634466171265,-0.005859375,0.00537109375,3.640643176682826e-13,0.001966409519591625,-1.4997479475380095e-08,0.0017773550444767016,0.5504341169031466,0.5519160586746936
1624633351.1777909,-4.117841741398866e-08,6.525089763981638e-10,5.78,4.89,2.545561756051029e-06,2.3679644073126838e-05,1.2804877758026123,-0.01708984375,0.0126953125,3.4655191744698073e-13,0.0018430542968652923,-1.468278638552383e-08,0.0017390286703053497,0.5504314592044429,0.5519309683706976
1624633351.1777909,-4.117841741398866e-08,6.525089763981638e-10,5.78,4.89,2.672839627848589e-06,2.486362609488424e-05,1.2804877758026123,-0.01708984375,0.0126953125,3.4655191744698073e-13,0.0018430542968652923,-1.468278638552383e-08,0.0017390286703053497,0.5504314592044429,0.5519309683706976
1624633351.1777909,-4.117841741398866e-08,6.525089763981638e-10,5.78,4.89,2.672839627848589e-06,2.486362609488424e-05,1.2804877758026123,-0.01708984375,0.0126953125,3.4655191744698073e-13,0.0018430542968652923,-1.468278638552383e-08,0.0017390286703053497,0.5504314592044429,0.5519309683706976
1624633351.1777909,-4.117841741398866e-08,6.525089763981638e-10,5.78,4.89,2.672839627848589e-06,2.486362609488424e-05,1.2804877758026123,-0.01708984375,0.0126953125,3.4655191744698073e-13,0.0018430542968652923,-1.468278638552383e-08,0.0017390286703053497,0.5504314592044429,0.5519309683706976
1624633351.1777909,-4.117841741398866e-08,6.525089763981638e-10,5.78,4.89,2.672839627848589e-06,2.486362609488424e-05,1.2804877758026123,-0.01708984375,0.0126953125,3.336826864586033e-13,0.0019676734813286792,-1.468278638552383e-08,0.0017390286703053497,0.5505177580824343,0.5519309683706976
1624633351.219791,-3.9870876579326266e-08,7.630948929130511e-10,5.78,4.89,2.672839627848589e-06,2.486362609488424e-05,1.2804877758026123,-0.01708984375,0.0126953125,3.336826864586033e-13,0.0019676734813286792,-1.3916318795778895e-08,0.0018077121821273936,0.5505177580824343,0.551964485353474
1624633351.219791,-3.9870876579326266e-08,7.630948929130511e-10,5.78,4.89,2.6076486392412335e-06,2.425719503662549e-05,1.2804877758026123,-0.01708984375,0.0126953125,3.336826864586033e-13,0.0019676734813286792,-1.3916318795778895e-08,0.0018077121821273936,0.5505177580824343,0.551964485353474
1624633351.219791,-3.9870876579326266e-08,7.630948929130511e-10,5.8,4.9,2.6076486392412335e-06,2.425719503662549e-05,1.2804877758026123,-0.01708984375,0.0126953125,3.336826864586033e-13,0.0019676734813286792,-1.3916318795778895e-08,0.0018077121821273936,0.5505177580824343,0.551964485353474
1624633351.219791,-3.9870876579326266e-08,7.630948929130511e-10,5.8,4.9,2.6076486392412335e-06,2.425719503662549e-05,1.2804877758026123,-0.01708984375,0.0126953125,3.336826864586033e-13,0.0019676734813286792,-1.3916318795778895e-08,0.0018077121821273936,0.5505177580824343,0.551964485353474
1624633351.219791,-3.9870876579326266e-08,7.630948929130511e-10,5.8,4.9,2.6076486392412335e-06,2.425719503662549e-05,1.2804877758026123,-0.01708984375,0.0126953125,3.3354541095712313e-13,0.0019273463611782504,-1.3916318795778895e-08,0.0018077121821273936,0.550434768100999,0.551964485353474
1624633351.237791,-3.875726303447092e-08,8.718001180734582e-10,5.8,4.9,2.6076486392412335e-06,2.425719503662549e-05,1.4634146690368652,-0.01513671875,0.0126953125,3.3354541095712313e-13,0.0019273463611782504,-1.2510475674242974e-08,0.0018011770669728062,0.550434768100999,0.5519117295444798
1624633351.237791,-3.875726303447092e-08,8.718001180734582e-10,5.8,4.9,2.6076486392412335e-06,2.425719503662549e-05,1.4634146690368652,-0.01513671875,0.0126953125,3.3354541095712313e-13,0.0019273463611782504,-1.2510475674242974e-08,0.0018011770669728062,0.550434768100999,0.5519117295444798
1624633351.237791,-3.875726303447092e-08,8.718001180734582e-10,5.8,4.9,2.6076486392412335e-06,2.425719503662549e-05,1.4634146690368652,-0.01513671875,0.0126953125,3.3354541095712313e-13,0.0019273463611782504,-1.2510475674242974e-08,0.0018011770669728062,0.550434768100999,0.5519117295444798
1624633351.237791,-3.875726303447092e-08,8.718001180734582e-10,5.8,4.9,2.6076486392412335e-06,2.425719503662549e-05,1.4634146690368652,-0.01513671875,0.0126953125,3.3354541095712313e-13,0.0019273463611782504,-1.2510475674242974e-08,0.0018011770669728062,0.550434768100999,0.5519117295444798
1624633351.237791,-3.875726303447092e-08,8.718001180734582e-10,5.8,4.9,2.6076486392412335e-06,2.425719503662549e-05,1.4634146690368652,-0.01513671875,0.0126953125,3.1105182614223597e-13,0.0018568746994012963,-1.2510475674242974e-08,0.0018011770669728062,0.5504814787099466,0.5519117295444798
1624633351.323791,-3.744039402581148e-08,9.816406421996013e-10,5.8,4.9,2.6076486392412335e-06,2.425719503662549e-05,1.4634146690368652,-0.01513671875,0.0126953125,3.1105182614223597e-13,0.0018568746994012963,-1.3328708334293045e-08,0.001791553218963362,0.5504814787099466,0.5520070004622548
1624633351.323791,-3.744039402581148e-08,9.816406421996013e-10,5.8,4.9,2.6076486392412335e-06,2.425719503662549e-05,1.4634146690368652,-0.01513671875,0.0126953125,3.1105182614223597e-13,0.0018568746994012963,-1.3328708334293045e-08,0.001791553218963362,0.5504814787099466,0.5520070004622548
1624633351.323791,-3.744039402581148e-08,9.816406421996013e-10,5.8,4.9,2.6076486392412335e-06,2.425719503662549e-05,1.4634146690368652,-0.01513671875,0.0126953125,3.1105182614223597e-13,0.0018568746994012963,-1.3328708334293045e-08,0.001791553218963362,0.5504814787099466,0.5520070004622548
1624633351.323791,-3.744039402581148e-08,9.816406421996013e-10,5.8,4.91,2.6076486392412335e-06,2.425719503662549e-05,1.4634146690368652,-0.01513671875,0.0126953125,3.1105182614223597e-13,0.0018568746994012963,-1.3328708334293045e-08,0.001791553218963362,0.5504814787099466,0.5520070004622548
1624633351.357791,-3.625608746882929e-08,1.0872026208603717e-09,5.8,4.91,2.6076486392412335e-06,2.425719503662549e-05,1.4634146690368652,-0.01513671875,0.0126953125,3.051904109802608e-13,0.0017886056068109788,-1.2341439675737096e-08,0.0017369711643398101,0.5504303483785514,0.5519724937569649
1624633351.357791,-3.625608746882929e-08,1.0872026208603717e-09,5.8,4.91,2.6076486392412335e-06,2.425719503662549e-05,1.3414634466171265,-0.0224609375,0.0185546875,3.051904109802608e-13,0.0017886056068109788,-1.2341439675737096e-08,0.0017369711643398101,0.5504303483785514,0.5519724937569649
1624633351.357791,-3.625608746882929e-08,1.0872026208603717e-09,5.8,4.91,2.6076486392412335e-06,2.425719503662549e-05,1.3414634466171265,-0.0224609375,0.0185546875,3.051904109802608e-13,0.0017886056068109788,-1.2341439675737096e-08,0.0017369711643398101,0.5504303483785514,0.5519724937569649
1624633351.357791,-3.625608746882929e-08,1.0872026208603717e-09,5.8,4.91,2.6076486392412335e-06,2.425719503662549e-05,1.3414634466171265,-0.0224609375,0.0185546875,3.051904109802608e-13,0.0017886056068109788,-1.2341439675737096e-08,0.0017369711643398101,0.5504303483785514,0.5519724937569649
1624633351.357791,-3.625608746882929e-08,1.0872026208603717e-09,5.8,4.91,2.6076486392412335e-06,2.425719503662549e-05,1.3414634466171265,-0.0224609375,0.0185546875,3.051904109802608e-13,0.0017886056068109788,-1.2341439675737096e-08,0.0017369711643398101,0.5504303483785514,0.5519724937569649
1624633351.417791,-3.5045453105079495e-08,1.1890928738694738e-09,5.8,4.91,2.545561756051029e-06,2.3679644073126838e-05,1.3414634466171265,-0.0224609375,0.0185546875,2.89797165711148e-13,0.0016750886086891559,-1.220621875882039e-08,0.0016502159740693686,0.5504253801952598,0.5519781776927463
1624633351.417791,-3.5045453105079495e-08,1.1890928738694738e-09,5.8,4.91,2.545561756051029e-06,2.3679644073126838e-05,1.3414634466171265,-0.0224609375,0.0185546875,2.89797165711148e-13,0.0016750886086891559,-1.220621875882039e-08,0.0016502159740693686,0.5504253801952598,0.5519781776927463
1624633351.417791,-3.5045453105079495e-08,1.1890928738694738e-09,5.8,4.91,2.545561756051029e-06,2.3679644073126838e-05,1.3414634466171265,-0.0224609375,0.0185546875,2.89797165711148e-13,0.0016750886086891559,-1.220621875882039e-08,0.0016502159740693686,0.5504253801952598,0.5519781776927463
1624633351.417791,-3.5045453105079495e-08,1.1890928738694738e-09,5.81,4.93,2.545561756051029e-06,2.3679644073126838e-05,1.3414634466171265,-0.0224609375,0.0185546875,2.89797165711148e-13,0.0016750886086891559,-1.220621875882039e-08,0.0016502159740693686,0.5504253801952598,0.5519781776927463
1624633351.417791,-3.5045453105079495e-08,1.1890928738694738e-09,5.81,4.93,2.545561756051029e-06,2.3679644073126838e-05,1.3414634466171265,-0.013671875,0.00439453125,2.89797165711148e-13,0.0016750886086891559,-1.220621875882039e-08,0.0016502159740693686,0.5504253801952598,0.5519781776927463
1624633351.4777908,-3.382841016292172e-08,1.2856701483671467e-09,5.81,4.93,2.545561756051029e-06,2.3679644073126838e-05,1.3414634466171265,-0.013671875,0.00439453125,2.7868203792883594e-13,0.0018749574514987494,-1.198435541965427e-08,0.001667247706295228,0.5504330449389643,0.5519849617119189
1624633351.4777908,-3.382841016292172e-08,1.2856701483671467e-09,5.81,4.93,2.6076486392412335e-06,2.425719503662549e-05,1.3414634466171265,-0.013671875,0.00439453125,2.7868203792883594e-13,0.0018749574514987494,-1.198435541965427e-08,0.001667247706295228,0.5504330449389643,0.5519849617119189
1624633351.4777908,-3.382841016292172e-08,1.2856701483671467e-09,5.81,4.93,2.6076486392412335e-06,2.425719503662549e-05,1.3414634466171265,-0.013671875,0.00439453125,2.7868203792883594e-13,0.0018749574514987494,-1.198435541965427e-08,0.001667247706295228,0.5504330449389643,0.5519849617119189
1624633351.4777908,-3.382841016292172e-08,1.2856701483671467e-09,5.81,4.93,2.6076486392412335e-06,2.425719503662549e-05,1.3414634466171265,-0.013671875,0.00439453125,2.7868203792883594e-13,0.0018749574514987494,-1.198435541965427e-08,0.001667247706295228,0.5504330449389643,0.5519849617119189
1624633351.4777908,-3.382841016292172e-08,1.2856701483671467e-09,5.81,4.93,2.6076486392412335e-06,2.425719503662549e-05,1.3414634466171265,-0.013671875,0.00439453125,2.7868203792883594e-13,0.0018749574514987494,-1.198435541965427e-08,0.001667247706295228,0.5504330449389643,0.5519849617119189
1624633351.511791,-3.2802847336619754e-08,1.3544043730332e-09,5.81,4.93,2.6076486392412335e-06,2.425719503662549e-05,1.3414634466171265,-0.013671875,0.00439453125,2.6903226537919045e-13,0.0017848310838771628,-1.1177173154897759e-08,0.0016876375362750475,0.550493150644034,0.5519922488235259
1624633351.511791,-3.2802847336619754e-08,1.3544043730332e-09,5.81,4.93,2.6076486392412335e-06,2.425719503662549e-05,1.3414634466171265,-0.013671875,0.00439453125,2.6903226537919045e-13,0.0017848310838771628,-1.1177173154897759e-08,0.0016876375362750475,0.550493150644034,0.5519922488235259
1624633351.511791,-3.2802847336619754e-08,1.3544043730332e-09,5.81,4.93,2.6076486392412335e-06,2.425719503662549e-05,1.3414634466171265,-0.013671875,0.00439453125,2.6903226537919045e-13,0.0017848310838771628,-1.1177173154897759e-08,0.0016876375362750475,0.550493150644034,0.5519922488235259
1624633351.511791,-3.2802847336619754e-08,1.3544043730332e-09,5.81,4.93,2.6076486392412335e-06,2.425719503662549e-05,1.3414634466171265,-0.013671875,0.00439453125,2.6903226537919045e-13,0.0017848310838771628,-1.1177173154897759e-08,0.0016876375362750475,0.550493150644034,0.5519922488235259
1624633351.511791,-3.2802847336619754e-08,1.3544043730332e-09,5.81,4.93,2.6076486392412335e-06,2.425719503662549e-05,1.402438998222351,-0.00244140625,0.01123046875,2.6903226537919045e-13,0.0017848310838771628,-1.1177173154897759e-08,0.0016876375362750475,0.550493150644034,0.5519922488235259
1624633351.537791,-3.18872729483759e-08,1.423917589379409e-09,5.81,4.93,2.6076486392412335e-06,2.425719503662549e-05,1.402438998222351,-0.00244140625,0.01123046875,2.6627851351888235e-13,0.0017340962269560456,-1.0285283919581036e-08,0.0016558716698766348,0.5504285742838267,0.5519457365925557
1624633351.537791,-3.18872729483759e-08,1.423917589379409e-09,5.81,4.93,2.6076486392412335e-06,2.425719503662549e-05,1.402438998222351,-0.00244140625,0.01123046875,2.6627851351888235e-13,0.0017340962269560456,-1.0285283919581036e-08,0.0016558716698766348,0.5504285742838267,0.5519457365925557
1624633351.537791,-3.18872729483759e-08,1.423917589379409e-09,5.81,4.93,2.6076486392412335e-06,2.425719503662549e-05,1.402438998222351,-0.00244140625,0.01123046875,2.6627851351888235e-13,0.0017340962269560456,-1.0285283919581036e-08,0.0016558716698766348,0.5504285742838267,0.5519457365925557
1624633351.537791,-3.18872729483759e-08,1.423917589379409e-09,5.81,4.93,2.6076486392412335e-06,2.425719503662549e-05,1.402438998222351,-0.00244140625,0.01123046875,2.6627851351888235e-13,0.0017340962269560456,-1.0285283919581036e-08,0.0016558716698766348,0.5504285742838267,0.5519457365925557
1624633351.537791,-3.18872729483759e-08,1.423917589379409e-09,5.81,4.93,2.6076486392412335e-06,2.425719503662549e-05,1.402438998222351,-0.00244140625,0.01123046875,2.6627851351888235e-13,0.0017340962269560456,-1.0285283919581036e-08,0.0016558716698766348,0.5504285742838267,0.5519457365925557
1624633351.6157908,-3.083824287116956e-08,1.4915189923184062e-09,5.81,4.93,2.6076486392412335e-06,2.425719503662549e-05,1.402438998222351,-0.00244140625,0.01123046875,2.4917998737889e-13,0.0019067941393210615,-1.0772335606377233e-08,0.0017315070316254965,0.5504658604327951,0.5520126699567933
1624633351.6157908,-3.083824287116956e-08,1.4915189923184062e-09,5.81,4.93,2.6076486392412335e-06,2.425719503662549e-05,1.402438998222351,-0.00244140625,0.01123046875,2.4917998737889e-13,0.0019067941393210615,-1.0772335606377233e-08,0.0017315070316254965,0.5504658604327951,0.5520126699567933
1624633351.6157908,-3.083824287116956e-08,1.4915189923184062e-09,5.81,4.93,2.6076486392412335e-06,2.425719503662549e-05,1.402438998222351,-0.00244140625,0.01123046875,2.4917998737889e-13,0.0019067941393210615,-1.0772335606377233e-08,0.0017315070316254965,0.5504658604327951,0.5520126699567933
1624633351.6157908,-3.083824287116956e-08,1.4915189923184062e-09,5.81,4.94,2.6076486392412335e-06,2.425719503662549e-05,1.402438998222351,-0.00244140625,0.01123046875,2.4917998737889e-13,0.0019067941393210615,-1.0772335606377233e-08,0.0017315070316254965,0.5504658604327951,0.5520126699567933
1624633351.6157908,-3.083824287116956e-08,1.4915189923184062e-09,5.81,4.94,2.6076486392412335e-06,2.425719503662549e-05,1.402438998222351,-0.00244140625,0.01123046875,2.4917998737889e-13,0.0019067941393210615,-1.0772335606377233e-08,0.0017315070316254965,0.5504658604327951,0.5520126699567933
1624633351.6606529,-2.9839864589927773e-08,1.5574225733090641e-09,5.81,4.94,2.6076486392412335e-06,2.425719503662549e-05,1.2804877758026123,-0.0185546875,0.0126953125,2.4009028079017704e-13,0.001816008623482978,-1.0772335606377233e-08,0.0017315070316254965,0.5504312504229067,0.5520126699567933
1624633351.6606529,-2.9839864589927773e-08,1.5574225733090641e-09,5.81,4.94,2.6076486392412335e-06,2.425719503662549e-05,1.2804877758026123,-0.0185546875,0.0126953125,2.4009028079017704e-13,0.001816008623482978,-1.0772335606377233e-08,0.0017315070316254965,0.5504312504229067,0.5520126699567933
1624633351.6606529,-2.9839864589927773e-08,1.5574225733090641e-09,5.81,4.94,2.6076486392412335e-06,2.425719503662549e-05,1.2804877758026123,-0.0185546875,0.0126953125,2.4009028079017704e-13,0.001816008623482978,-1.025277345043953e-08,0.0017056763963098837,0.5504312504229067,0.5519960276146247
1624633351.6606529,-2.9839864589927773e-08,1.5574225733090641e-09,5.81,4.94,2.6076486392412335e-06,2.425719503662549e-05,1.2804877758026123,-0.0185546875,0.0126953125,2.4009028079017704e-13,0.001816008623482978,-1.025277345043953e-08,0.0017056763963098837,0.5504312504229067,0.5519960276146247
1624633351.6606529,-2.9839864589927773e-08,1.5574225733090641e-09,5.81,4.94,2.6076486392412335e-06,2.425719503662549e-05,1.2804877758026123,-0.0185546875,0.0126953125,2.4009028079017704e-13,0.001816008623482978,-1.025277345043953e-08,0.0017056763963098837,0.5504312504229067,0.5519960276146247
1624633351.722653,-2.8817915551612045e-08,1.6191811918561833e-09,5.81,4.94,2.6076486392412335e-06,2.425719503662549e-05,1.2804877758026123,-0.0185546875,0.0126953125,2.273853531467123e-13,0.00184209502410382,-1.025277345043953e-08,0.0017056763963098837,0.5504343116957034,0.5519960276146247
1624633351.722653,-2.8817915551612045e-08,1.6191811918561833e-09,5.81,4.94,2.6076486392412335e-06,2.425719503662549e-05,1.2804877758026123,-0.0185546875,0.0126953125,2.273853531467123e-13,0.00184209502410382,-1.025277345043953e-08,0.0017056763963098837,0.5504343116957034,0.5519960276146247
1624633351.722653,-2.8817915551612045e-08,1.6191811918561833e-09,5.81,4.94,2.6076486392412335e-06,2.425719503662549e-05,1.2804877758026123,-0.0185546875,0.0126953125,2.273853531467123e-13,0.00184209502410382,-1.0153303731202837e-08,0.0017088108052210184,0.5504343116957034,0.5520109541669135
1624633351.722653,-2.8817915551612045e-08,1.6191811918561833e-09,5.83,4.94,2.6076486392412335e-06,2.425719503662549e-05,1.2804877758026123,-0.0185546875,0.0126953125,2.273853531467123e-13,0.00184209502410382,-1.0153303731202837e-08,0.0017088108052210184,0.5504343116957034,0.5520109541669135
1624633351.722653,-2.8817915551612045e-08,1.6191811918561833e-09,5.83,4.94,2.6076486392412335e-06,2.425719503662549e-05,1.2804877758026123,-0.0185546875,0.0126953125,2.273853531467123e-13,0.00184209502410382,-1.0153303731202837e-08,0.0017088108052210184,0.5504343116957034,0.5520109541669135
1624633351.780653,-2.7806694665739134e-08,1.6760593832890838e-09,5.83,4.94,2.6076486392412335e-06,2.425719503662549e-05,1.402438998222351,-0.013671875,0.005859375,2.1394755700484408e-13,0.0017299726364866433,-1.0153303731202837e-08,0.0017088108052210184,0.5504270046507053,0.5520109541669135
1624633351.780653,-2.7806694665739134e-08,1.6760593832890838e-09,5.83,4.94,2.672839627848589e-06,2.486362609488424e-05,1.402438998222351,-0.013671875,0.005859375,2.1394755700484408e-13,0.0017299726364866433,-1.0153303731202837e-08,0.0017088108052210184,0.5504270046507053,0.5520109541669135
1624633351.780653,-2.7806694665739134e-08,1.6760593832890838e-09,5.83,4.94,2.672839627848589e-06,2.486362609488424e-05,1.402438998222351,-0.013671875,0.005859375,2.1394755700484408e-13,0.0017299726364866433,-1.0153303731202837e-08,0.0017088108052210184,0.5504270046507053,0.5520109541669135
1624633351.780653,-2.7806694665739134e-08,1.6760593832890838e-09,5.83,4.94,2.672839627848589e-06,2.486362609488424e-05,1.402438998222351,-0.013671875,0.005859375,2.1394755700484408e-13,0.0017299726364866433,-1.0153303731202837e-08,0.0017088108052210184,0.5504270046507053,0.5520109541669135
1624633351.780653,-2.7806694665739134e-08,1.6760593832890838e-09,5.83,4.94,2.672839627848589e-06,2.486362609488424e-05,1.402438998222351,-0.013671875,0.005859375,2.1394755700484408e-13,0.0017299726364866433,-1.0153303731202837e-08,0.0017088108052210184,0.5504270046507053,0.5520109541669135
1624633351.826653,-2.691286111136719e-08,1.7128283204366266e-09,5.83,4.94,2.672839627848589e-06,2.486362609488424e-05,1.402438998222351,-0.013671875,0.005859375,2.055869087923873e-13,0.001942898707528726,-9.893703957517227e-09,0.0016490395826998035,0.5505214018879431,0.5520099372973647
1624633351.826653,-2.691286111136719e-08,1.7128283204366266e-09,5.83,4.94,2.672839627848589e-06,2.486362609488424e-05,1.402438998222351,-0.013671875,0.005859375,2.055869087923873e-13,0.001942898707528726,-9.893703957517227e-09,0.0016490395826998035,0.5505214018879431,0.5520099372973647
1624633351.826653,-2.691286111136719e-08,1.7128283204366266e-09,5.83,4.94,2.6076486392412335e-06,2.425719503662549e-05,1.402438998222351,-0.013671875,0.005859375,2.055869087923873e-13,0.001942898707528726,-9.893703957517227e-09,0.0016490395826998035,0.5505214018879431,0.5520099372973647
1624633351.826653,-2.691286111136719e-08,1.7128283204366266e-09,5.84,4.96,2.6076486392412335e-06,2.425719503662549e-05,1.402438998222351,-0.013671875,0.005859375,2.055869087923873e-13,0.001942898707528726,-9.893703957517227e-09,0.0016490395826998035,0.5505214018879431,0.5520099372973647
1624633351.826653,-2.691286111136719e-08,1.7128283204366266e-09,5.84,4.96,2.6076486392412335e-06,2.425719503662549e-05,1.402438998222351,-0.013671875,0.005859375,2.055869087923873e-13,0.001942898707528726,-9.465853794414767e-09,0.0017451755674790731,0.5505214018879431,0.5520468461346296
1624633351.840653,-2.616739137202393e-08,1.7524770367134484e-09,5.84,4.96,2.6076486392412335e-06,2.425719503662549e-05,1.402438998222351,-0.013671875,0.005859375,2.0326667593824635e-13,0.0019108649928432744,-8.420266928813799e-09,0.0017508104006761717,0.5504328656785479,0.5519808116231542
1624633351.840653,-2.616739137202393e-08,1.7524770367134484e-09,5.84,4.96,2.6076486392412335e-06,2.425719503662549e-05,1.402438998222351,-0.013671875,0.005859375,2.0326667593824635e-13,0.0019108649928432744,-8.420266928813799e-09,0.0017508104006761717,0.5504328656785479,0.5519808116231542
1624633351.840653,-2.616739137202393e-08,1.7524770367134484e-09,5.84,4.96,2.6076486392412335e-06,2.425719503662549e-05,1.4634146690368652,-0.01123046875,0.00830078125,2.0326667593824635e-13,0.0019108649928432744,-8.420266928813799e-09,0.0017508104006761717,0.5504328656785479,0.5519808116231542
1624633351.840653,-2.616739137202393e-08,1.7524770367134484e-09,5.84,4.96,2.6076486392412335e-06,2.425719503662549e-05,1.4634146690368652,-0.01123046875,0.00830078125,2.0326667593824635e-13,0.0019108649928432744,-8.420266928813799e-09,0.0017508104006761717,0.5504328656785479,0.5519808116231542
1624633351.840653,-2.616739137202393e-08,1.7524770367134484e-09,5.84,4.96,2.6076486392412335e-06,2.425719503662549e-05,1.4634146690368652,-0.01123046875,0.00830078125,2.0326667593824635e-13,0.0019108649928432744,-8.420266928813799e-09,0.0017508104006761717,0.5504328656785479,0.5519808116231542
1624633351.900653,-2.5373558061426347e-08,1.7901951283327067e-09,5.84,4.96,2.6076486392412335e-06,2.425719503662549e-05,1.4634146690368652,-0.01123046875,0.00830078125,1.9128117290016616e-13,0.0017902790023874445,-8.420266928813799e-09,0.0017508104006761717,0.550429512856464,0.5519808116231542
1624633351.900653,-2.5373558061426347e-08,1.7901951283327067e-09,5.84,4.96,2.6076486392412335e-06,2.425719503662549e-05,1.4634146690368652,-0.01123046875,0.00830078125,1.9128117290016616e-13,0.0017902790023874445,-8.420266928813799e-09,0.0017508104006761717,0.550429512856464,0.5519808116231542
1624633351.900653,-2.5373558061426347e-08,1.7901951283327067e-09,5.84,4.96,2.6076486392412335e-06,2.425719503662549e-05,1.4634146690368652,-0.01123046875,0.00830078125,1.9128117290016616e-13,0.0017902790023874445,-8.420266928813799e-09,0.0017508104006761717,0.550429512856464,0.5519808116231542
1624633351.900653,-2.5373558061426347e-08,1.7901951283327067e-09,5.84,4.96,2.6076486392412335e-06,2.425719503662549e-05,1.4634146690368652,-0.01123046875,0.00830078125,1.9128117290016616e-13,0.0017902790023874445,-8.420266928813799e-09,0.0017508104006761717,0.550429512856464,0.5519808116231542
1624633351.900653,-2.5373558061426347e-08,1.7901951283327067e-09,5.84,4.96,2.672839627848589e-06,2.486362609488424e-05,1.3414634466171265,-0.01904296875,0.00537109375,1.9128117290016616e-13,0.0017902790023874445,-8.478237051217148e-09,0.0017063393966690707,0.550429512856464,0.5519910397412825
1624633351.9606528,-2.4551146794139237e-08,1.8248948377129113e-09,5.84,4.96,2.672839627848589e-06,2.486362609488424e-05,1.3414634466171265,-0.01904296875,0.00537109375,1.8133721348967954e-13,0.0017329743198860202,-8.478237051217148e-09,0.0017063393966690707,0.5504278331771454,0.5519910397412825
1624633351.9606528,-2.4551146794139237e-08,1.8248948377129113e-09,5.84,4.96,2.672839627848589e-06,2.486362609488424e-05,1.3414634466171265,-0.01904296875,0.00537109375,1.8133721348967954e-13,0.0017329743198860202,-8.478237051217148e-09,0.0017063393966690707,0.5504278331771454,0.5519910397412825
1624633351.9606528,-2.4551146794139237e-08,1.8248948377129113e-09,5.84,4.96,2.672839627848589e-06,2.486362609488424e-05,1.3414634466171265,-0.01904296875,0.00537109375,1.8133721348967954e-13,0.0017329743198860202,-8.478237051217148e-09,0.0017063393966690707,0.5504278331771454,0.5519910397412825
1624633351.9606528,-2.4551146794139237e-08,1.8248948377129113e-09,5.84,4.96,2.672839627848589e-06,2.486362609488424e-05,1.3414634466171265,-0.01904296875,0.00537109375,1.8133721348967954e-13,0.0017329743198860202,-8.478237051217148e-09,0.0017063393966690707,0.5504278331771454,0.5519910397412825
1624633351.9606528,-2.4551146794139237e-08,1.8248948377129113e-09,5.84,4.96,2.672839627848589e-06,2.486362609488424e-05,1.3414634466171265,-0.01904296875,0.00537109375,1.8133721348967954e-13,0.0017329743198860202,-8.434337139460762e-09,0.001653026611597152,0.5504278331771454,0.5519968667843381
1624633352.020653,-2.3716494387996584e-08,1.8558222902818959e-09,5.84,4.96,2.6076486392412335e-06,2.425719503662549e-05,1.3414634466171265,-0.01904296875,0.00537109375,1.713407970460042e-13,0.0016003098751012875,-8.434337139460762e-09,0.001653026611597152,0.5504224085057763,0.5519968667843381
1624633352.020653,-2.3716494387996584e-08,1.8558222902818959e-09,5.84,4.96,2.6076486392412335e-06,2.425719503662549e-05,1.3414634466171265,-0.01904296875,0.00537109375,1.713407970460042e-13,0.0016003098751012875,-8.434337139460762e-09,0.001653026611597152,0.5504224085057763,0.5519968667843381
1624633352.020653,-2.3716494387996584e-08,1.8558222902818959e-09,5.84,4.97,2.6076486392412335e-06,2.425719503662549e-05,1.3414634466171265,-0.01904296875,0.00537109375,1.713407970460042e-13,0.0016003098751012875,-8.434337139460762e-09,0.001653026611597152,0.5504224085057763,0.5519968667843381
1624633352.020653,-2.3716494387996584e-08,1.8558222902818959e-09,5.84,4.97,2.6076486392412335e-06,2.425719503662549e-05,1.3414634466171265,-0.01904296875,0.00537109375,1.713407970460042e-13,0.0016003098751012875,-8.316533446903306e-09,0.001566617709563718,0.5504224085057763,0.5519957085334114
1624633352.020653,-2.3716494387996584e-08,1.8558222902818959e-09,5.84,4.97,2.6076486392412335e-06,2.425719503662549e-05,1.402438998222351,-0.01611328125,0.0078125,1.713407970460042e-13,0.0016003098751012875,-8.316533446903306e-09,0.001566617709563718,0.5504224085057763,0.5519957085334114
1624633352.080653,0.002017514901823636,2.2206675847425283e-09,5.84,4.97,2.6076486392412335e-06,2.425719503662549e-05,1.402438998222351,-0.01611328125,0.0078125,0.023551389613634066,0.0014999572869659626,-8.316533446903306e-09,0.001566617709563718,0.5504173207049344,0.5519957085334114
1624633352.080653,0.002017514901823636,2.2206675847425283e-09,5.84,4.97,0.00187708402518183,0.017461245879530907,1.402438998222351,-0.01611328125,0.0078125,0.023551389613634066,0.0014999572869659626,-8.316533446903306e-09,0.001566617709563718,0.5504173207049344,0.5519957085334114
1624633352.080653,0.002017514901823636,2.2206675847425283e-09,5.84,4.97,0.00187708402518183,0.017461245879530907,1.402438998222351,-0.01611328125,0.0078125,0.023551389613634066,0.0014999572869659626,-8.316533446903306e-09,0.001566617709563718,0.5504173207049344,0.5519957085334114
1624633352.080653,0.002017514901823636,2.2206675847425283e-09,5.84,4.97,0.00187708402518183,0.017461245879530907,1.402438998222351,-0.01611328125,0.0078125,0.023551389613634066,0.0014999572869659626,-8.316533446903306e-09,0.001566617709563718,0.5504173207049344,0.5519957085334114
1624633352.080653,0.002017514901823636,2.2206675847425283e-09,5.84,4.97,0.00187708402518183,0.017461245879530907,1.402438998222351,-0.01611328125,0.0078125,0.023551389613634066,0.0014999572869659626,0.0038504170203021303,0.0014740823005451615,0.5504173207049344,0.5519882965751208
1624633352.1186528,0.0047140027512110215,2.499398052349966e-09,5.84,4.97,0.00187708402518183,0.017461245879530907,1.402438998222351,-0.01611328125,0.0078125,0.03803537720618187,0.0017921857762646601,0.0038504170203021303,0.0014740823005451615,0.5504921157191447,0.5519882965751208
1624633352.1186528,0.0047140027512110215,2.499398052349966e-09,5.84,4.97,0.00187708402518183,0.017461245879530907,1.402438998222351,-0.01611328125,0.0078125,0.03803537720618187,0.0017921857762646601,0.0038504170203021303,0.0014740823005451615,0.5504921157191447,0.5519882965751208
1624633352.1186528,0.0047140027512110215,2.499398052349966e-09,5.83,4.97,0.054830413311719894,0.1797894388437271,1.402438998222351,-0.01611328125,0.0078125,0.03803537720618187,0.0017921857762646601,0.0038504170203021303,0.0014740823005451615,0.5504921157191447,0.5519882965751208
1624633352.1186528,0.0047140027512110215,2.499398052349966e-09,5.83,4.97,0.054830413311719894,0.1797894388437271,1.402438998222351,-0.01611328125,0.0078125,0.03803537720618187,0.0017921857762646601,0.009071487198437532,0.001577981533026372,0.5504921157191447,0.5520027332170093
1624633352.1186528,0.0047140027512110215,2.499398052349966e-09,5.83,4.97,0.054830413311719894,0.1797894388437271,1.402438998222351,-0.01611328125,0.0078125,0.03803537720618187,0.0017921857762646601,0.009071487198437532,0.001577981533026372,0.5504921157191447,0.5520027332170093
1624633352.140653,0.007421260470043881,-1.3703572490006208e-09,5.83,4.97,0.054830413311719894,0.1797894388437271,6.158536911010742,-0.0390625,-0.24267578125,0.04468343358590765,0.0017564920330947972,0.009071487198437532,0.001577981533026372,0.5506216267827475,0.5520027332170093
1624633352.140653,0.007421260470043881,-1.3703572490006208e-09,5.83,4.97,0.054830413311719894,0.1797894388437271,6.158536911010742,-0.0390625,-0.24267578125,0.04468343358590765,0.0017564920330947972,0.009071487198437532,0.001577981533026372,0.5506216267827475,0.5520027332170093
1624633352.140653,0.007421260470043881,-1.3703572490006208e-09,5.83,4.97,0.054830413311719894,0.1797894388437271,6.158536911010742,-0.0390625,-0.24267578125,0.04468343358590765,0.0017564920330947972,0.009071487198437532,0.001577981533026372,0.5506216267827475,0.5520027332170093
1624633352.140653,0.007421260470043881,-1.3703572490006208e-09,5.83,4.97,0.12190795689821243,-0.032733697444200516,6.158536911010742,-0.0390625,-0.24267578125,0.04468343358590765,0.0017564920330947972,0.014333856027879758,0.0015951660396734224,0.5506216267827475,0.5519607347404286
1624633352.140653,0.007421260470043881,-1.3703572490006208e-09,5.83,4.97,0.12190795689821243,-0.032733697444200516,6.158536911010742,-0.0390625,-0.24267578125,0.04468343358590765,0.0017564920330947972,0.014333856027879758,0.0015951660396734224,0.5506216267827475,0.5519607347404286
1624633352.222653,0.012193972949169504,7.338185934538873e-08,5.83,4.97,0.12190795689821243,-0.032733697444200516,6.158536911010742,-0.0390625,-0.24267578125,0.0726339104720007,0.0034358189521519144,0.014333856027879758,0.0015951660396734224,0.5552680222493867,0.5519607347404286
1624633352.222653,0.012193972949169504,7.338185934538873e-08,5.83,4.97,0.12190795689821243,-0.032733697444200516,6.158536911010742,-0.0390625,-0.24267578125,0.0726339104720007,0.0034358189521519144,0.014333856027879758,0.0015951660396734224,0.5552680222493867,0.5519607347404286
1624633352.222653,0.012193972949169504,7.338185934538873e-08,5.83,4.97,0.12190795689821243,-0.032733697444200516,6.158536911010742,-0.0390625,-0.24267578125,0.0726339104720007,0.0034358189521519144,0.014333856027879758,0.0015951660396734224,0.5552680222493867,0.5519607347404286
1624633352.222653,0.012193972949169504,7.338185934538873e-08,5.83,4.97,0.12190795689821243,-0.032733697444200516,6.158536911010742,-0.0390625,-0.24267578125,0.0726339104720007,0.0034358189521519144,0.014333856027879758,0.0015951660396734224,0.5552680222493867,0.5519607347404286
1624633352.222653,0.012193972949169504,7.338185934538873e-08,5.83,4.97,0.22804605960845947,-0.06752379983663559,3.5365853309631348,-0.0361328125,-0.404296875,0.08568047555877534,0.0034393685757197353,0.02404778172844335,0.0025065926235319216,0.5583222741436314,0.5522736021275703
1624633352.260653,0.01717380930887765,1.5270235711504193e-06,5.83,4.97,0.22804605960845947,-0.06752379983663559,3.5365853309631348,-0.0361328125,-0.404296875,0.08568047555877534,0.0034393685757197353,0.02404778172844335,0.0025065926235319216,0.5583222741436314,0.5522736021275703
1624633352.260653,0.01717380930887765,1.5270235711504193e-06,5.83,4.97,0.22804605960845947,-0.06752379983663559,3.5365853309631348,-0.0361328125,-0.404296875,0.08568047555877534,0.0034393685757197353,0.02404778172844335,0.0025065926235319216,0.5583222741436314,0.5522736021275703
1624633352.260653,0.01717380930887765,1.5270235711504193e-06,5.83,4.97,0.22804605960845947,-0.06752379983663559,3.5365853309631348,-0.0361328125,-0.404296875,0.08568047555877534,0.0034393685757197353,0.02404778172844335,0.0025065926235319216,0.5583222741436314,0.5522736021275703
1624633352.260653,0.01717380930887765,1.5270235711504193e-06,5.83,4.97,0.22804605960845947,-0.06752379983663559,3.5365853309631348,-0.0361328125,-0.404296875,0.08568047555877534,0.0034393685757197353,0.03400686987248491,0.0030373236920789213,0.5583222741436314,0.5527430240164315
1624633352.260653,0.01717380930887765,1.5270235711504193e-06,5.83,4.97,0.22804605960845947,-0.06752379983663559,3.5365853309631348,-0.0361328125,-0.404296875,0.08568047555877534,0.0034393685757197353,0.03400686987248491,0.0030373236920789213,0.5583222741436314,0.5527430240164315
1624633352.326653,0.023590515431444654,3.679287029667704e-06,5.83,4.97,0.34103158116340637,-4.652770803659223e-05,3.5365853309631348,-0.0361328125,-0.404296875,0.1111683130378205,0.016203677276683426,0.03400686987248491,0.0030373236920789213,0.5572063728526286,0.5527430240164315
1624633352.326653,0.023590515431444654,3.679287029667704e-06,5.83,4.97,0.34103158116340637,-4.652770803659223e-05,3.5365853309631348,-0.0361328125,-0.404296875,0.1111683130378205,0.016203677276683426,0.03400686987248491,0.0030373236920789213,0.5572063728526286,0.5527430240164315
1624633352.326653,0.023590515431444654,3.679287029667704e-06,5.83,4.97,0.34103158116340637,-4.652770803659223e-05,3.5365853309631348,-0.0361328125,-0.404296875,0.1111683130378205,0.016203677276683426,0.03400686987248491,0.0030373236920789213,0.5572063728526286,0.5527430240164315
1624633352.326653,0.023590515431444654,3.679287029667704e-06,5.83,4.94,0.34103158116340637,-4.652770803659223e-05,3.5365853309631348,-0.0361328125,-0.404296875,0.1111683130378205,0.016203677276683426,0.047387867957204455,0.009051495149970657,0.5572063728526286,0.5535585589139933
1624633352.326653,0.023590515431444654,3.679287029667704e-06,5.83,4.94,0.34103158116340637,-4.652770803659223e-05,3.5365853309631348,-0.0361328125,-0.404296875,0.1111683130378205,0.016203677276683426,0.047387867957204455,0.009051495149970657,0.5572063728526286,0.5535585589139933
1624633352.380653,0.029147456706328737,3.816285638148041e-06,5.83,4.94,0.34103158116340637,-4.652770803659223e-05,3.5365853309631348,-0.0361328125,-0.404296875,0.11410235945672167,0.015218116229391666,0.047387867957204455,0.009051495149970657,0.5557566693704852,0.5535585589139933
1624633352.380653,0.029147456706328737,3.816285638148041e-06,5.83,4.94,0.4209573268890381,4.585253554978408e-05,3.5365853309631348,-0.0361328125,-0.404296875,0.11410235945672167,0.015218116229391666,0.047387867957204455,0.009051495149970657,0.5557566693704852,0.5535585589139933
1624633352.380653,0.029147456706328737,3.816285638148041e-06,5.83,4.94,0.4209573268890381,4.585253554978408e-05,1.7073171138763428,-0.298828125,-0.16943359375,0.11410235945672167,0.015218116229391666,0.047387867957204455,0.009051495149970657,0.5557566693704852,0.5535585589139933
1624633352.380653,0.029147456706328737,3.816285638148041e-06,5.83,4.94,0.4209573268890381,4.585253554978408e-05,1.7073171138763428,-0.298828125,-0.16943359375,0.11410235945672167,0.015218116229391666,0.05927521055853428,0.011372873994939858,0.5557566693704852,0.5543049621019261
1624633352.380653,0.029147456706328737,3.816285638148041e-06,5.83,4.94,0.4209573268890381,4.585253554978408e-05,1.7073171138763428,-0.298828125,-0.16943359375,0.11410235945672167,0.015218116229391666,0.05927521055853428,0.011372873994939858,0.5557566693704852,0.5543049621019261
1624633352.380653,0.033153439216102164,3.919564739113217e-06,5.83,4.94,0.4209573268890381,4.585253554978408e-05,1.7073171138763428,-0.298828125,-0.16943359375,0.11410235945672167,0.015218116229391666,0.05927521055853428,0.011372873994939858,0.5557566693704852,0.5543049621019261
1624633352.380653,0.033153439216102164,3.919564739113217e-06,5.83,4.94,0.4209573268890381,4.585253554978408e-05,1.7073171138763428,-0.298828125,-0.16943359375,0.11410235945672167,0.015218116229391666,0.05927521055853428,0.011372873994939858,0.5557566693704852,0.5543049621019261
1624633352.380653,0.033153439216102164,3.919564739113217e-06,5.82,4.94,0.515523374080658,0.01522037759423256,1.7073171138763428,-0.298828125,-0.16943359375,0.11410235945672167,0.015218116229391666,0.06692642035856254,0.012439469672238372,0.5557566693704852,0.5544550838252262
1624633352.380653,0.033153439216102164,3.919564739113217e-06,5.82,4.94,0.515523374080658,0.01522037759423256,2.7439024448394775,0.0673828125,0.37841796875,0.11410235945672167,0.015218116229391666,0.06692642035856254,0.012439469672238372,0.5557566693704852,0.5544550838252262
1624633352.380653,0.033153439216102164,3.919564739113217e-06,5.82,4.94,0.515523374080658,0.01522037759423256,2.7439024448394775,0.0673828125,0.37841796875,0.11410235945672167,0.015218116229391666,0.06692642035856254,0.012439469672238372,0.5557566693704852,0.5544550838252262
1624633352.4406528,0.03727771191563313,1.1316772638558248e-06,5.82,4.94,0.515523374080658,0.01522037759423256,2.7439024448394775,0.0673828125,0.37841796875,0.12214516639867457,0.006932197563804401,0.06692642035856254,0.012439469672238372,0.5546981623911201,0.5544550838252262
1624633352.4406528,0.03727771191563313,1.1316772638558248e-06,5.82,4.94,0.515523374080658,0.01522037759423256,2.7439024448394775,0.0673828125,0.37841796875,0.12214516639867457,0.006932197563804401,0.06692642035856254,0.012439469672238372,0.5546981623911201,0.5544550838252262
1624633352.4406528,0.03727771191563313,1.1316772638558248e-06,5.82,4.94,0.515523374080658,0.01522037759423256,2.7439024448394775,0.0673828125,0.37841796875,0.12214516639867457,0.006932197563804401,0.06692642035856254,0.012439469672238372,0.5546981623911201,0.5544550838252262
1624633352.4406528,0.03727771191563313,1.1316772638558248e-06,5.82,4.94,0.5428507328033447,0.016308413818478584,2.7439024448394775,0.0673828125,0.37841796875,0.12214516639867457,0.006932197563804401,0.07676986533843036,0.010247988849732926,0.5546981623911201,0.5550439443103281
1624633352.4406528,0.03727771191563313,1.1316772638558248e-06,5.82,4.94,0.5428507328033447,0.016308413818478584,2.7439024448394775,0.0673828125,0.37841796875,0.12214516639867457,0.006932197563804401,0.07676986533843036,0.010247988849732926,0.5546981623911201,0.5550439443103281
1624633352.514653,0.04173968427026776,-5.828993299980399e-06,5.82,4.94,0.5428507328033447,0.016308413818478584,2.7439024448394775,0.0673828125,0.37841796875,0.1335391692947199,0.0024351950022630233,0.07676986533843036,0.010247988849732926,0.5536450459005748,0.5550439443103281
1624633352.514653,0.04173968427026776,-5.828993299980399e-06,5.82,4.94,0.5428507328033447,0.016308413818478584,2.7439024448394775,0.0673828125,0.37841796875,0.1335391692947199,0.0024351950022630233,0.07676986533843036,0.010247988849732926,0.5536450459005748,0.5550439443103281
1624633352.514653,0.04173968427026776,-5.828993299980399e-06,5.82,4.92,0.5428507328033447,0.016308413818478584,2.7439024448394775,0.0673828125,0.37841796875,0.1335391692947199,0.0024351950022630233,0.07676986533843036,0.010247988849732926,0.5536450459005748,0.5550439443103281
1624633352.514653,0.04173968427026776,-5.828993299980399e-06,5.82,4.92,0.5428507328033447,0.016308413818478584,2.7439024448394775,0.0673828125,0.37841796875,0.1335391692947199,0.0024351950022630233,0.08803160829264202,0.006396530838935037,0.5536450459005748,0.5554448838748705
1624633352.514653,0.04173968427026776,-5.828993299980399e-06,5.82,4.92,0.5443249940872192,0.017848800867795944,1.585365891456604,-0.14990234375,0.353515625,0.15162326726350753,0.0022893710070178742,0.08803160829264202,0.006396530838935037,0.5529510351405147,0.5554448838748705
1624633352.560653,0.04682744521762362,-1.5816933483218376e-05,5.82,4.92,0.5443249940872192,0.017848800867795944,1.585365891456604,-0.14990234375,0.353515625,0.15162326726350753,0.0022893710070178742,0.08803160829264202,0.006396530838935037,0.5529510351405147,0.5554448838748705
1624633352.560653,0.04682744521762362,-1.5816933483218376e-05,5.82,4.92,0.5443249940872192,0.017848800867795944,1.585365891456604,-0.14990234375,0.353515625,0.15162326726350753,0.0022893710070178742,0.08803160829264202,0.006396530838935037,0.5529510351405147,0.5554448838748705
1624633352.560653,0.04682744521762362,-1.5816933483218376e-05,5.82,4.92,0.5443249940872192,0.017848800867795944,1.585365891456604,-0.14990234375,0.353515625,0.15162326726350753,0.0022893710070178742,0.08803160829264202,0.006396530838935037,0.5529510351405147,0.5554448838748705
1624633352.560653,0.04682744521762362,-1.5816933483218376e-05,5.82,4.92,0.5443249940872192,0.017848800867795944,1.585365891456604,-0.14990234375,0.353515625,0.15162326726350753,0.0022893710070178742,0.09964619071241729,0.00476012662897002,0.5529510351405147,0.5554257060166793
1624633352.560653,0.04682744521762362,-1.5816933483218376e-05,5.82,4.92,0.5443249940872192,0.017848800867795944,1.585365891456604,-0.14990234375,0.353515625,0.15162326726350753,0.0022893710070178742,0.09964619071241729,0.00476012662897002,0.5529510351405147,0.5554257060166793
1624633352.620653,0.052342577524803154,-2.662729528926999e-05,5.82,4.92,0.5214000940322876,-2.1748877770733088e-05,1.585365891456604,-0.14990234375,0.353515625,0.1677857438434781,-0.006834259435954822,0.09964619071241729,0.00476012662897002,0.5527626875566719,0.5554257060166793
1624633352.620653,0.052342577524803154,-2.662729528926999e-05,5.82,4.92,0.5214000940322876,-2.1748877770733088e-05,1.585365891456604,-0.14990234375,0.353515625,0.1677857438434781,-0.006834259435954822,0.09964619071241729,0.00476012662897002,0.5527626875566719,0.5554257060166793
1624633352.620653,0.052342577524803154,-2.662729528926999e-05,5.83,4.89,0.5214000940322876,-2.1748877770733088e-05,1.585365891456604,-0.14990234375,0.353515625,0.1677857438434781,-0.006834259435954822,0.11297262012283439,-0.0004884177051450306,0.5527626875566719,0.5551363409971783
1624633352.620653,0.052342577524803154,-2.662729528926999e-05,5.83,4.89,0.5214000940322876,-2.1748877770733088e-05,1.585365891456604,-0.14990234375,0.353515625,0.1677857438434781,-0.006834259435954822,0.11297262012283439,-0.0004884177051450306,0.5527626875566719,0.5551363409971783
1624633352.6806529,0.05801004922872795,-3.612334094184793e-05,5.83,4.89,0.5214000940322876,-2.1748877770733088e-05,1.585365891456604,-0.14990234375,0.353515625,0.18218050702707334,-0.006407467950072836,0.11297262012283439,-0.0004884177051450306,0.5527311526435473,0.5551363409971783
1624633352.6806529,0.05801004922872795,-3.612334094184793e-05,5.83,4.89,0.5214000940322876,-2.1748877770733088e-05,1.6463414430618286,-0.0927734375,-0.1669921875,0.18218050702707334,-0.006407467950072836,0.11297262012283439,-0.0004884177051450306,0.5527311526435473,0.5551363409971783
1624633352.6806529,0.05801004922872795,-3.612334094184793e-05,5.83,4.89,0.5022176504135132,-0.033822931349277496,1.6463414430618286,-0.0927734375,-0.1669921875,0.18218050702707334,-0.006407467950072836,0.12693372829202612,-0.002769624869434514,0.5527311526435473,0.554742365728638
1624633352.6806529,0.05801004922872795,-3.612334094184793e-05,5.83,4.89,0.5022176504135132,-0.033822931349277496,1.6463414430618286,-0.0927734375,-0.1669921875,0.18218050702707334,-0.006407467950072836,0.12693372829202612,-0.002769624869434514,0.5527311526435473,0.554742365728638
1624633352.6806529,0.05801004922872795,-3.612334094184793e-05,5.83,4.89,0.5022176504135132,-0.033822931349277496,1.6463414430618286,-0.0927734375,-0.1669921875,0.18218050702707334,-0.006407467950072836,0.12693372829202612,-0.002769624869434514,0.5527311526435473,0.554742365728638
1624633352.6806529,0.06208233613870565,-4.296089679330695e-05,5.83,4.89,0.5022176504135132,-0.033822931349277496,1.6463414430618286,-0.0927734375,-0.1669921875,0.18218050702707334,-0.006407467950072836,0.12693372829202612,-0.002769624869434514,0.5527311526435473,0.554742365728638
1624633352.6806529,0.06208233613870565,-4.296089679330695e-05,5.83,4.89,0.5022176504135132,-0.033822931349277496,1.6463414430618286,-0.0927734375,-0.1669921875,0.18218050702707334,-0.006407467950072836,0.12693372829202612,-0.002769624869434514,0.5527311526435473,0.554742365728638
1624633352.6806529,0.06208233613870565,-4.296089679330695e-05,5.83,4.89,0.4916653037071228,0.017476486042141914,1.6463414430618286,-0.0927734375,-0.1669921875,0.18218050702707334,-0.006407467950072836,0.13470869620436315,-0.0038011424357099768,0.5527311526435473,0.5545107485925318
1624633352.6806529,0.06208233613870565,-4.296089679330695e-05,5.82,4.86,0.4916653037071228,0.017476486042141914,1.6463414430618286,-0.0927734375,-0.1669921875,0.18218050702707334,-0.006407467950072836,0.13470869620436315,-0.0038011424357099768,0.5527311526435473,0.5545107485925318
1624633352.6806529,0.06208233613870565,-4.296089679330695e-05,5.82,4.86,0.4916653037071228,0.017476486042141914,1.6463414430618286,-0.0927734375,-0.1669921875,0.18218050702707334,-0.006407467950072836,0.13470869620436315,-0.0038011424357099768,0.5527311526435473,0.5545107485925318
1624633352.7406528,0.0664499301230582,-4.944375156203528e-05,5.82,4.86,0.4916653037071228,0.017476486042141914,-1.3414634466171265,0.01953125,-0.20361328125,0.19444918178499015,-0.003910684244106889,0.13470869620436315,-0.0038011424357099768,0.5518543442230027,0.5545107485925318
1624633352.7406528,0.0664499301230582,-4.944375156203528e-05,5.82,4.86,0.4916653037071228,0.017476486042141914,-1.3414634466171265,0.01953125,-0.20361328125,0.19444918178499015,-0.003910684244106889,0.13470869620436315,-0.0038011424357099768,0.5518543442230027,0.5545107485925318
1624633352.7406528,0.0664499301230582,-4.944375156203528e-05,5.82,4.86,0.4916653037071228,0.017476486042141914,-1.3414634466171265,0.01953125,-0.20361328125,0.19444918178499015,-0.003910684244106889,0.14675052364148655,-0.003911342075938566,0.5518543442230027,0.5540311204213352
1624633352.7406528,0.0664499301230582,-4.944375156203528e-05,5.82,4.86,0.5021093487739563,-0.034830931574106216,-1.3414634466171265,0.01953125,-0.20361328125,0.19444918178499015,-0.003910684244106889,0.14675052364148655,-0.003911342075938566,0.5518543442230027,0.5540311204213352
1624633352.7406528,0.0664499301230582,-4.944375156203528e-05,5.82,4.86,0.5021093487739563,-0.034830931574106216,-1.3414634466171265,0.01953125,-0.20361328125,0.19444918178499015,-0.003910684244106889,0.14675052364148655,-0.003911342075938566,0.5518543442230027,0.5540311204213352
1624633352.826653,0.07038760549113174,-5.590450085152805e-05,5.82,4.86,0.5021093487739563,-0.034830931574106216,-1.3414634466171265,0.01953125,-0.20361328125,0.19907973327695305,0.001677125094352026,0.14675052364148655,-0.003911342075938566,0.5516469910931734,0.5540311204213352
1624633352.826653,0.07038760549113174,-5.590450085152805e-05,5.82,4.86,0.5021093487739563,-0.034830931574106216,-1.3414634466171265,0.01953125,-0.20361328125,0.19907973327695305,0.001677125094352026,0.14675052364148655,-0.003911342075938566,0.5516469910931734,0.5540311204213352
1624633352.826653,0.07038760549113174,-5.590450085152805e-05,5.82,4.86,0.5021093487739563,-0.034830931574106216,-1.3414634466171265,0.01953125,-0.20361328125,0.19907973327695305,0.001677125094352026,0.15998246792343182,-0.0012808051944896573,0.5516469910931734,0.5536733545278073
1624633352.826653,0.07038760549113174,-5.590450085152805e-05,5.82,4.8,0.5021093487739563,-0.034830931574106216,-1.3414634466171265,0.01953125,-0.20361328125,0.19907973327695305,0.001677125094352026,0.15998246792343182,-0.0012808051944896573,0.5516469910931734,0.5536733545278073
1624633352.826653,0.07038760549113174,-5.590450085152805e-05,5.82,4.8,0.5038356781005859,-0.016361162066459656,-1.3414634466171265,0.01953125,-0.20361328125,0.19907973327695305,0.001677125094352026,0.15998246792343182,-0.0012808051944896573,0.5516469910931734,0.5536733545278073
1624633352.860653,0.07454267058745481,-6.0634894503193815e-05,5.82,4.8,0.5038356781005859,-0.016361162066459656,-1.3414634466171265,0.01953125,-0.20361328125,0.21296989422024815,0.0016019409988178284,0.15998246792343182,-0.0012808051944896573,0.5513056058939253,0.5536733545278073
1624633352.860653,0.07454267058745481,-6.0634894503193815e-05,5.82,4.8,0.5038356781005859,-0.016361162066459656,-2.5,-0.10595703125,0.2890625,0.21296989422024815,0.0016019409988178284,0.15998246792343182,-0.0012808051944896573,0.5513056058939253,0.5536733545278073
1624633352.860653,0.07454267058745481,-6.0634894503193815e-05,5.82,4.8,0.5038356781005859,-0.016361162066459656,-2.5,-0.10595703125,0.2890625,0.21296989422024815,0.0016019409988178284,0.15998246792343182,-0.0012808051944896573,0.5513056058939253,0.5536733545278073
1624633352.860653,0.07454267058745481,-6.0634894503193815e-05,5.82,4.8,0.5038356781005859,-0.016361162066459656,-2.5,-0.10595703125,0.2890625,0.21296989422024815,0.0016019409988178284,0.15998246792343182,-0.0012808051944896573,0.5513056058939253,0.5536733545278073
1624633352.860653,0.07454267058745481,-6.0634894503193815e-05,5.82,4.8,0.49016714096069336,0.0011293079005554318,-2.5,-0.10595703125,0.2890625,0.22044802266077157,0.0014826137128785175,0.17030476139451825,-0.000312165018493984,0.5509997841376832,0.5533755125838246
1624633352.9206529,0.07838531320969205,-6.449174979891212e-05,5.82,4.8,0.49016714096069336,0.0011293079005554318,-2.5,-0.10595703125,0.2890625,0.22044802266077157,0.0014826137128785175,0.17030476139451825,-0.000312165018493984,0.5509997841376832,0.5533755125838246
1624633352.9206529,0.07838531320969205,-6.449174979891212e-05,5.82,4.8,0.49016714096069336,0.0011293079005554318,-2.5,-0.10595703125,0.2890625,0.22044802266077157,0.0014826137128785175,0.17030476139451825,-0.000312165018493984,0.5509997841376832,0.5533755125838246
1624633352.9206529,0.07838531320969205,-6.449174979891212e-05,5.84,4.63,0.49016714096069336,0.0011293079005554318,-2.5,-0.10595703125,0.2890625,0.22044802266077157,0.0014826137128785175,0.17030476139451825,-0.000312165018493984,0.5509997841376832,0.5533755125838246
1624633352.9206529,0.07838531320969205,-6.449174979891212e-05,5.84,4.63,0.49016714096069336,0.0011293079005554318,-2.987804889678955,-0.0068359375,-0.04345703125,0.22044802266077157,0.0014826137128785175,0.17030476139451825,-0.000312165018493984,0.5509997841376832,0.5533755125838246
1624633352.9806528,0.08180589887184636,-6.735599661542653e-05,5.84,4.63,0.49016714096069336,0.0011293079005554318,-2.987804889678955,-0.0068359375,-0.04345703125,0.22678041511058838,0.009912675476391606,0.1821126299680048,0.0002062192846931245,0.5513900659223891,0.5530370955562608
1624633352.9806528,0.08180589887184636,-6.735599661542653e-05,5.84,4.63,0.5054519176483154,0.03483343869447708,-2.987804889678955,-0.0068359375,-0.04345703125,0.22678041511058838,0.009912675476391606,0.1821126299680048,0.0002062192846931245,0.5513900659223891,0.5530370955562608
1624633352.9806528,0.08180589887184636,-6.735599661542653e-05,5.84,4.63,0.5054519176483154,0.03483343869447708,-2.987804889678955,-0.0068359375,-0.04345703125,0.22678041511058838,0.009912675476391606,0.1821126299680048,0.0002062192846931245,0.5513900659223891,0.5530370955562608
1624633352.9806528,0.08180589887184636,-6.735599661542653e-05,5.84,4.63,0.5054519176483154,0.03483343869447708,-2.987804889678955,-0.0068359375,-0.04345703125,0.22678041511058838,0.009912675476391606,0.1821126299680048,0.0002062192846931245,0.5513900659223891,0.5530370955562608
1624633352.9806528,0.08180589887184636,-6.735599661542653e-05,5.84,4.63,0.5054519176483154,0.03483343869447708,-2.987804889678955,-0.0068359375,-0.04345703125,0.22678041511058838,0.009912675476391606,0.19335131351109477,0.004018920585417254,0.5513900659223891,0.5530004758567727
1624633353.014653,0.08360549945592405,-6.930030380407488e-05,5.84,4.63,0.5054519176483154,0.03483343869447708,-2.987804889678955,-0.0068359375,-0.04345703125,0.21906984669399973,0.01824566050419386,0.19335131351109477,0.004018920585417254,0.5522006771997554,0.5530004758567727
1624633353.014653,0.08360549945592405,-6.930030380407488e-05,5.84,4.63,0.5054519176483154,0.03483343869447708,-2.987804889678955,-0.0068359375,-0.04345703125,0.21906984669399973,0.01824566050419386,0.19335131351109477,0.004018920585417254,0.5522006771997554,0.5530004758567727
1624633353.014653,0.08360549945592405,-6.930030380407488e-05,5.84,4.63,0.5000896453857422,-0.017458738759160042,-2.987804889678955,-0.0068359375,-0.04345703125,0.21906984669399973,0.01824566050419386,0.19335131351109477,0.004018920585417254,0.5522006771997554,0.5530004758567727
1624633353.014653,0.08360549945592405,-6.930030380407488e-05,5.84,4.64,0.5000896453857422,-0.017458738759160042,-2.987804889678955,-0.0068359375,-0.04345703125,0.21906984669399973,0.01824566050419386,0.19956865836647522,0.01030410298711116,0.5522006771997554,0.5534201671343995
1624633353.014653,0.08360549945592405,-6.930030380407488e-05,5.84,4.64,0.5000896453857422,-0.017458738759160042,7.865853786468506,-0.02294921875,-0.02734375,0.21906984669399973,0.01824566050419386,0.19956865836647522,0.01030410298711116,0.5522006771997554,0.5534201671343995
1624633353.040653,0.08595716445575123,-7.029744938597625e-05,5.84,4.64,0.5000896453857422,-0.017458738759160042,7.865853786468506,-0.02294921875,-0.02734375,0.23252581800153072,0.017764371908819823,0.19956865836647522,0.01030410298711116,0.552487784725819,0.5534201671343995
1624633353.040653,0.08595716445575123,-7.029744938597625e-05,5.84,4.64,0.5000896453857422,-0.017458738759160042,7.865853786468506,-0.02294921875,-0.02734375,0.23252581800153072,0.017764371908819823,0.19956865836647522,0.01030410298711116,0.552487784725819,0.5534201671343995
1624633353.040653,0.08595716445575123,-7.029744938597625e-05,5.84,4.64,0.5000896453857422,-0.017458738759160042,7.865853786468506,-0.02294921875,-0.02734375,0.23252581800153072,0.017764371908819823,0.19956865836647522,0.01030410298711116,0.552487784725819,0.5534201671343995
1624633353.040653,0.08595716445575123,-7.029744938597625e-05,5.84,4.64,0.491921991109848,0.017453482374548912,7.865853786468506,-0.02294921875,-0.02734375,0.23252581800153072,0.017764371908819823,0.19956865836647522,0.01030410298711116,0.552487784725819,0.5534201671343995
1624633353.040653,0.08595716445575123,-7.029744938597625e-05,5.84,4.64,0.491921991109848,0.017453482374548912,7.865853786468506,-0.02294921875,-0.02734375,0.23252581800153072,0.017764371908819823,0.2062255798279913,0.012837405333795307,0.552487784725819,0.5536241370809599
1624633353.1186528,0.08760868779051187,-6.948804435356587e-05,5.84,4.64,0.491921991109848,0.017453482374548912,7.865853786468506,-0.02294921875,-0.02734375,0.2329878680265499,0.016308962828582244,0.2062255798279913,0.012837405333795307,0.5533127803360163,0.5536241370809599
1624633353.1186528,0.08760868779051187,-6.948804435356587e-05,5.84,4.64,0.491921991109848,0.017453482374548912,7.865853786468506,-0.02294921875,-0.02734375,0.2329878680265499,0.016308962828582244,0.2062255798279913,0.012837405333795307,0.5533127803360163,0.5536241370809599
1624633353.1186528,0.08760868779051187,-6.948804435356587e-05,5.84,4.64,0.491921991109848,0.017453482374548912,7.865853786468506,-0.02294921875,-0.02734375,0.2329878680265499,0.016308962828582244,0.2062255798279913,0.012837405333795307,0.5533127803360163,0.5536241370809599
1624633353.1186528,0.08760868779051187,-6.948804435356587e-05,5.84,4.62,0.491921991109848,0.017453482374548912,7.865853786468506,-0.02294921875,-0.02734375,0.2329878680265499,0.016308962828582244,0.21608026287252413,0.014394884884745943,0.5533127803360163,0.5545092789293332
1624633353.1186528,0.08760868779051187,-6.948804435356587e-05,5.84,4.62,0.41365888714790344,-0.016304129734635353,7.865853786468506,-0.02294921875,-0.02734375,0.2329878680265499,0.016308962828582244,0.21608026287252413,0.014394884884745943,0.5533127803360163,0.5545092789293332
1624633353.1606529,0.08936819320290701,-6.82509455614999e-05,5.84,4.62,0.41365888714790344,-0.016304129734635353,7.865853786468506,-0.02294921875,-0.02734375,0.24129288013997963,0.015591427660258611,0.21608026287252413,0.014394884884745943,0.5532423865437074,0.5545092789293332
1624633353.1606529,0.08936819320290701,-6.82509455614999e-05,5.84,4.62,0.41365888714790344,-0.016304129734635353,2.1341464519500732,-0.1025390625,0.14111328125,0.24129288013997963,0.015591427660258611,0.21608026287252413,0.014394884884745943,0.5532423865437074,0.5545092789293332
1624633353.1606529,0.08936819320290701,-6.82509455614999e-05,5.84,4.62,0.41365888714790344,-0.016304129734635353,2.1341464519500732,-0.1025390625,0.14111328125,0.24129288013997963,0.015591427660258611,0.21608026287252413,0.014394884884745943,0.5532423865437074,0.5545092789293332
1624633353.1606529,0.08936819320290701,-6.82509455614999e-05,5.84,4.62,0.41365888714790344,-0.016304129734635353,2.1341464519500732,-0.1025390625,0.14111328125,0.24129288013997963,0.015591427660258611,0.22311417270011663,0.014779783892106355,0.5532423865437074,0.5547613535446029
1624633353.1606529,0.08936819320290701,-6.82509455614999e-05,5.84,4.62,0.41365888714790344,-0.016304129734635353,2.1341464519500732,-0.1025390625,0.14111328125,0.24129288013997963,0.015591427660258611,0.22311417270011663,0.014779783892106355,0.5532423865437074,0.5547613535446029
1624633353.2206528,0.0905526389277512,-6.731450030814932e-05,5.84,4.62,0.32937347888946533,-1.3984751603857148e-05,2.1341464519500732,-0.1025390625,0.14111328125,0.24260239567269337,0.014565487175974199,0.22311417270011663,0.014779783892106355,0.5525719256178636,0.5547613535446029
1624633353.2206528,0.0905526389277512,-6.731450030814932e-05,5.84,4.62,0.32937347888946533,-1.3984751603857148e-05,2.1341464519500732,-0.1025390625,0.14111328125,0.24260239567269337,0.014565487175974199,0.22311417270011663,0.014779783892106355,0.5525719256178636,0.5547613535446029
1624633353.2206528,0.0905526389277512,-6.731450030814932e-05,5.84,4.62,0.32937347888946533,-1.3984751603857148e-05,2.1341464519500732,-0.1025390625,0.14111328125,0.24260239567269337,0.014565487175974199,0.22311417270011663,0.014779783892106355,0.5525719256178636,0.5547613535446029
1624633353.2206528,0.0905526389277512,-6.731450030814932e-05,5.84,4.6,0.32937347888946533,-1.3984751603857148e-05,2.1341464519500732,-0.1025390625,0.14111328125,0.24260239567269337,0.014565487175974199,0.23073516894372767,0.014615681905566434,0.5525719256178636,0.554996785800185
1624633353.2206528,0.0905526389277512,-6.731450030814932e-05,5.84,4.6,0.32937347888946533,-1.3984751603857148e-05,2.1341464519500732,-0.1025390625,0.14111328125,0.24260239567269337,0.014565487175974199,0.23073516894372767,0.014615681905566434,0.5525719256178636,0.554996785800185
1624633353.280653,0.09084646704304841,-6.684122153822135e-05,5.84,4.6,0.32937347888946533,-1.3984751603857148e-05,0.4268292784690857,0.0654296875,0.04248046875,0.23960985737144871,0.015051490208733686,0.23073516894372767,0.014615681905566434,0.5521160841691283,0.554996785800185
1624633353.280653,0.09084646704304841,-6.684122153822135e-05,5.84,4.6,0.21938259899616241,-0.0010637788800522685,0.4268292784690857,0.0654296875,0.04248046875,0.23960985737144871,0.015051490208733686,0.23073516894372767,0.014615681905566434,0.5521160841691283,0.554996785800185
1624633353.280653,0.09084646704304841,-6.684122153822135e-05,5.84,4.6,0.21938259899616241,-0.0010637788800522685,0.4268292784690857,0.0654296875,0.04248046875,0.23960985737144871,0.015051490208733686,0.23672927623263806,0.014666653687567349,0.5521160841691283,0.5550529021961246
1624633353.280653,0.09084646704304841,-6.684122153822135e-05,5.84,4.6,0.21938259899616241,-0.0010637788800522685,0.4268292784690857,0.0654296875,0.04248046875,0.23960985737144871,0.015051490208733686,0.23672927623263806,0.014666653687567349,0.5521160841691283,0.5550529021961246
1624633353.280653,0.09084646704304841,-6.684122153822135e-05,5.84,4.6,0.21938259899616241,-0.0010637788800522685,0.4268292784690857,0.0654296875,0.04248046875,0.23960985737144871,0.015051490208733686,0.23672927623263806,0.014666653687567349,0.5521160841691283,0.5550529021961246
1624633353.326653,0.08986194967403606,-6.659364110559002e-05,5.84,4.6,0.21938259899616241,-0.0010637788800522685,0.4268292784690857,0.0654296875,0.04248046875,0.22858780093032732,0.005281877004774872,0.23672927623263806,0.014666653687567349,0.5522051233305885,0.5550529021961246
1624633353.326653,0.08986194967403606,-6.659364110559002e-05,5.84,4.6,0.21938259899616241,-0.0010637788800522685,0.4268292784690857,0.0654296875,0.04248046875,0.22858780093032732,0.005281877004774872,0.23672927623263806,0.014666653687567349,0.5522051233305885,0.5550529021961246
1624633353.326653,0.08986194967403606,-6.659364110559002e-05,5.84,4.6,0.11435163021087646,0.03300519660115242,0.4268292784690857,0.0654296875,0.04248046875,0.22858780093032732,0.005281877004774872,0.23672927623263806,0.014666653687567349,0.5522051233305885,0.5550529021961246
1624633353.326653,0.08986194967403606,-6.659364110559002e-05,5.84,4.6,0.11435163021087646,0.03300519660115242,0.4268292784690857,0.0654296875,0.04248046875,0.2313673387716279,0.005170374720321228,0.23902868632581498,0.010489370402686202,0.5513738493203248,0.5550637824329532
1624633353.326653,0.08986194967403606,-6.659364110559002e-05,5.84,4.6,0.11435163021087646,0.03300519660115242,0.4268292784690857,0.0654296875,0.04248046875,0.2313673387716279,0.005170374720321228,0.23902868632581498,0.010489370402686202,0.5513738493203248,0.5550637824329532
1624633353.340653,0.08918700438730806,-6.642085815644275e-05,5.84,4.6,0.11435163021087646,0.03300519660115242,0.4268292784690857,0.0654296875,0.04248046875,0.2313673387716279,0.005170374720321228,0.23902868632581498,0.010489370402686202,0.5513738493203248,0.5550637824329532
1624633353.340653,0.08918700438730806,-6.642085815644275e-05,5.85,4.59,0.11435163021087646,0.03300519660115242,2.987804889678955,-0.0078125,0.10693359375,0.2313673387716279,0.005170374720321228,0.23899936930814836,0.008683689631396837,0.5513738493203248,0.5543340341724879
1624633353.340653,0.08918700438730806,-6.642085815644275e-05,5.85,4.59,0.11435163021087646,0.03300519660115242,2.987804889678955,-0.0078125,0.10693359375,0.2313673387716279,0.005170374720321228,0.23899936930814836,0.008683689631396837,0.5513738493203248,0.5543340341724879
1624633353.340653,0.08918700438730806,-6.642085815644275e-05,5.85,4.59,0.03135684132575989,1.2541584055725252e-06,2.987804889678955,-0.0078125,0.10693359375,0.2313673387716279,0.005170374720321228,0.23899936930814836,0.008683689631396837,0.5513738493203248,0.5543340341724879
1624633353.340653,0.08918700438730806,-6.642085815644275e-05,5.85,4.59,0.03135684132575989,1.2541584055725252e-06,2.987804889678955,-0.0078125,0.10693359375,0.2313673387716279,0.005170374720321228,0.23899936930814836,0.008683689631396837,0.5513738493203248,0.5543340341724879
1624633353.400653,0.08704481283433356,-6.557975869842768e-05,5.85,4.59,0.03135684132575989,1.2541584055725252e-06,2.987804889678955,-0.0078125,0.10693359375,0.21737679979526597,0.004851311451958929,0.23899936930814836,0.008683689631396837,0.5514988078730955,0.5543340341724879
1624633353.400653,0.08704481283433356,-6.557975869842768e-05,5.85,4.59,0.03135684132575989,1.2541584055725252e-06,2.987804889678955,-0.0078125,0.10693359375,0.21737679979526597,0.004851311451958929,0.23899936930814836,0.008683689631396837,0.5514988078730955,0.5543340341724879
1624633353.400653,0.08704481283433356,-6.557975869842768e-05,5.85,4.57,0.03135684132575989,1.2541584055725252e-06,2.987804889678955,-0.0078125,0.10693359375,0.21737679979526597,0.004851311451958929,0.23899936930814836,0.008683689631396837,0.5514988078730955,0.5543340341724879
1624633353.400653,0.08704481283433356,-6.557975869842768e-05,5.85,4.57,0.03135684132575989,1.2541584055725252e-06,2.987804889678955,-0.0078125,0.10693359375,0.21737679979526597,0.004851311451958929,0.23899936930814836,0.008683689631396837,0.5514988078730955,0.5543340341724879
1624633353.400653,0.08704481283433356,-6.557975869842768e-05,5.85,4.57,4.167084625805728e-06,-3.876358096022159e-05,1.7073171138763428,-0.01220703125,0.00732421875,0.17751457447372046,0.0060327391768718605,0.24027157486319808,0.0073445329528423345,0.55206756882783,0.5540607113956951
1624633353.520653,0.08012670546759162,-6.235303216216818e-05,5.85,4.57,4.167084625805728e-06,-3.876358096022159e-05,1.7073171138763428,-0.01220703125,0.00732421875,0.17751457447372046,0.0060327391768718605,0.24027157486319808,0.0073445329528423345,0.55206756882783,0.5540607113956951
1624633353.520653,0.08012670546759162,-6.235303216216818e-05,5.85,4.57,4.167084625805728e-06,-3.876358096022159e-05,1.7073171138763428,-0.01220703125,0.00732421875,0.17751457447372046,0.0060327391768718605,0.24027157486319808,0.0073445329528423345,0.55206756882783,0.5540607113956951
1624633353.520653,0.08012670546759162,-6.235303216216818e-05,5.85,4.57,4.167084625805728e-06,-3.876358096022159e-05,1.7073171138763428,-0.01220703125,0.00732421875,0.17751457447372046,0.0060327391768718605,0.24027157486319808,0.0073445329528423345,0.55206756882783,0.5540607113956951
1624633353.520653,0.08012670546759162,-6.235303216216818e-05,5.85,4.57,4.167084625805728e-06,-3.876358096022159e-05,1.7073171138763428,-0.01220703125,0.00732421875,0.17751457447372046,0.0060327391768718605,0.24027157486319808,0.0073445329528423345,0.55206756882783,0.5540607113956951
1624633353.520653,0.08012670546759162,-6.235303216216818e-05,5.85,4.57,4.167084625805728e-06,-3.876358096022159e-05,1.7073171138763428,-0.01220703125,0.00732421875,0.15629397727899944,0.0053225022331916845,0.23741699648452957,0.006667982990354642,0.5521660351481846,0.5541234787313768
1624633353.580653,0.07215336376936786,-5.8566114747488293e-05,5.85,4.57,4.271262241672957e-06,-3.973267303081229e-05,1.7073171138763428,-0.01220703125,0.00732421875,0.15629397727899944,0.0053225022331916845,0.22685660898545684,0.005986434605779787,0.5521660351481846,0.5538779296132607
1624633353.580653,0.07215336376936786,-5.8566114747488293e-05,5.85,4.57,4.271262241672957e-06,-3.973267303081229e-05,1.7073171138763428,-0.01220703125,0.00732421875,0.15629397727899944,0.0053225022331916845,0.22685660898545684,0.005986434605779787,0.5521660351481846,0.5538779296132607
1624633353.580653,0.07215336376936786,-5.8566114747488293e-05,5.85,4.56,4.271262241672957e-06,-3.973267303081229e-05,1.7073171138763428,-0.01220703125,0.00732421875,0.15629397727899944,0.0053225022331916845,0.22685660898545684,0.005986434605779787,0.5521660351481846,0.5538779296132607
1624633353.580653,0.07215336376936786,-5.8566114747488293e-05,5.85,4.56,4.271262241672957e-06,-3.973267303081229e-05,1.5243902206420898,-0.0078125,0.04150390625,0.15629397727899944,0.0053225022331916845,0.22685660898545684,0.005986434605779787,0.5521660351481846,0.5538779296132607
1624633353.580653,0.07215336376936786,-5.8566114747488293e-05,5.85,4.56,4.271262241672957e-06,-3.973267303081229e-05,1.5243902206420898,-0.0078125,0.04150390625,0.15629397727899944,0.0053225022331916845,0.22685660898545684,0.005986434605779787,0.5521660351481846,0.5538779296132607
1624633353.6186528,0.06550607541154363,-5.563359007471771e-05,5.85,4.56,4.167084625805728e-06,-3.876358096022159e-05,1.5243902206420898,-0.0078125,0.04150390625,0.15035482701658479,0.006363884307148113,0.22685660898545684,0.005986434605779787,0.5524312575252972,0.5538779296132607
1624633353.6186528,0.06550607541154363,-5.563359007471771e-05,5.85,4.56,4.167084625805728e-06,-3.876358096022159e-05,1.5243902206420898,-0.0078125,0.04150390625,0.15035482701658479,0.006363884307148113,0.22685660898545684,0.005986434605779787,0.5524312575252972,0.5538779296132607
1624633353.6186528,0.06550607541154363,-5.563359007471771e-05,5.85,4.56,4.167084625805728e-06,-3.876358096022159e-05,1.5243902206420898,-0.0078125,0.04150390625,0.15035482701658479,0.006363884307148113,0.22685660898545684,0.005986434605779787,0.5524312575252972,0.5538779296132607
1624633353.6186528,0.06550607541154363,-5.563359007471771e-05,5.85,4.56,4.167084625805728e-06,-3.876358096022159e-05,1.5243902206420898,-0.0078125,0.04150390625,0.15035482701658479,0.006363884307148113,0.22685660898545684,0.005986434605779787,0.5524312575252972,0.5538779296132607
1624633353.6186528,0.06550607541154363,-5.563359007471771e-05,5.85,4.56,4.167084625805728e-06,-3.876358096022159e-05,1.5243902206420898,-0.0078125,0.04150390625,0.1367268357341594,0.006210999097802382,0.21678753843450294,0.006128533638660257,0.5522499667328917,0.5538742574583768
1624633353.640653,0.059000975546398084,-5.230240183080276e-05,5.85,4.56,4.167084625805728e-06,-3.876358096022159e-05,1.5243902206420898,-0.0078125,0.04150390625,0.1367268357341594,0.006210999097802382,0.21678753843450294,0.006128533638660257,0.5522499667328917,0.5538742574583768
1624633353.640653,0.059000975546398084,-5.230240183080276e-05,5.85,4.56,4.167084625805728e-06,-3.876358096022159e-05,1.5243902206420898,-0.0078125,0.04150390625,0.1367268357341594,0.006210999097802382,0.21678753843450294,0.006128533638660257,0.5522499667328917,0.5538742574583768
1624633353.640653,0.059000975546398084,-5.230240183080276e-05,5.86,4.55,4.167084625805728e-06,-3.876358096022159e-05,1.5243902206420898,-0.0078125,0.04150390625,0.1367268357341594,0.006210999097802382,0.21678753843450294,0.006128533638660257,0.5522499667328917,0.5538742574583768
1624633353.640653,0.059000975546398084,-5.230240183080276e-05,5.86,4.55,4.167084625805728e-06,-3.876358096022159e-05,1.5243902206420898,-0.0078125,0.04150390625,0.1367268357341594,0.006210999097802382,0.21678753843450294,0.006128533638660257,0.5522499667328917,0.5538742574583768
1624633353.640653,0.059000975546398084,-5.230240183080276e-05,5.86,4.55,4.167084625805728e-06,-3.876358096022159e-05,1.2804877758026123,-0.01904296875,0.01171875,0.11643546122108857,0.0047729701036035715,0.20570778929024677,0.006119635399320759,0.5523451831361289,0.5536219423794779
1624633353.722653,0.05098522113592492,-4.814334581762624e-05,5.86,4.55,4.167084625805728e-06,-3.876358096022159e-05,1.2804877758026123,-0.01904296875,0.01171875,0.11643546122108857,0.0047729701036035715,0.20570778929024677,0.006119635399320759,0.5523451831361289,0.5536219423794779
1624633353.722653,0.05098522113592492,-4.814334581762624e-05,5.86,4.55,4.167084625805728e-06,-3.876358096022159e-05,1.2804877758026123,-0.01904296875,0.01171875,0.11643546122108857,0.0047729701036035715,0.20570778929024677,0.006119635399320759,0.5523451831361289,0.5536219423794779
1624633353.722653,0.05098522113592492,-4.814334581762624e-05,5.86,4.55,4.167084625805728e-06,-3.876358096022159e-05,1.2804877758026123,-0.01904296875,0.01171875,0.11643546122108857,0.0047729701036035715,0.20570778929024677,0.006119635399320759,0.5523451831361289,0.5536219423794779
1624633353.722653,0.05098522113592492,-4.814334581762624e-05,5.86,4.55,4.167084625805728e-06,-3.876358096022159e-05,1.2804877758026123,-0.01904296875,0.01171875,0.11643546122108857,0.0047729701036035715,0.1951147092238257,0.005470119508502275,0.5523451831361289,0.5537938471036413
1624633353.722653,0.05098522113592492,-4.814334581762624e-05,5.86,4.55,4.167084625805728e-06,-3.876358096022159e-05,1.2804877758026123,-0.01904296875,0.01171875,0.10352847624286454,0.00457834466178851,0.1951147092238257,0.005470119508502275,0.552228689903119,0.5537938471036413
1624633353.760653,0.04321134368526712,-4.377915558690595e-05,5.86,4.55,4.167084625805728e-06,-3.876358096022159e-05,1.2804877758026123,-0.01904296875,0.01171875,0.10352847624286454,0.00457834466178851,0.1951147092238257,0.005470119508502275,0.552228689903119,0.5537938471036413
1624633353.760653,0.04321134368526712,-4.377915558690595e-05,5.86,4.55,4.167084625805728e-06,-3.876358096022159e-05,1.2804877758026123,-0.01904296875,0.01171875,0.10352847624286454,0.00457834466178851,0.1951147092238257,0.005470119508502275,0.552228689903119,0.5537938471036413
1624633353.760653,0.04321134368526712,-4.377915558690595e-05,5.85,4.54,4.167084625805728e-06,-3.876358096022159e-05,1.2804877758026123,-0.01904296875,0.01171875,0.10352847624286454,0.00457834466178851,0.1951147092238257,0.005470119508502275,0.552228689903119,0.5537938471036413
1624633353.760653,0.04321134368526712,-4.377915558690595e-05,5.85,4.54,4.167084625805728e-06,-3.876358096022159e-05,1.2804877758026123,-0.01904296875,0.01171875,0.10352847624286454,0.00457834466178851,0.1951147092238257,0.005470119508502275,0.552228689903119,0.5537938471036413
1624633353.760653,0.04321134368526712,-4.377915558690595e-05,5.85,4.54,4.167084625805728e-06,-3.876358096022159e-05,1.3414634466171265,-0.00634765625,0.0185546875,0.08985624520302603,0.004287629403883722,0.1821030927064486,0.005109152876795682,0.5522142225121796,0.5535977963273132
1624633353.820653,0.03517156270264067,-3.909521834304075e-05,5.85,4.54,4.167084625805728e-06,-3.876358096022159e-05,1.3414634466171265,-0.00634765625,0.0185546875,0.08985624520302603,0.004287629403883722,0.1821030927064486,0.005109152876795682,0.5522142225121796,0.5535977963273132
1624633353.820653,0.03517156270264067,-3.909521834304075e-05,5.85,4.54,4.167084625805728e-06,-3.876358096022159e-05,1.3414634466171265,-0.00634765625,0.0185546875,0.08985624520302603,0.004287629403883722,0.1821030927064486,0.005109152876795682,0.5522142225121796,0.5535977963273132
1624633353.820653,0.03517156270264067,-3.909521834304075e-05,5.85,4.54,4.167084625805728e-06,-3.876358096022159e-05,1.3414634466171265,-0.00634765625,0.0185546875,0.08985624520302603,0.004287629403883722,0.1821030927064486,0.005109152876795682,0.5522142225121796,0.5535977963273132
