time,la_x,la_y,uwb_x,uwb_y,vel_linear_x,vel_angular_z,mpu_ang_vel_z,mpu_linear_acc_x,mpu_linear_acc_y,odom_linear_x,odom_angular_z,cmd_linear_x,cmd_linear_y,odom_yaw,cmd_angular_z,var_x,var_y,var_xvel,var_yvel,vel_linear_y,odom_linear_y
1626108408.669199,5.817113244075704e-10,2.602347993135714e-06,0.0,0.0,9.835094942900469e-07,9.148925528279506e-06,1.4634146690368652,-0.00537109375,0.00341796875,-5.954980482714275e-10,0.0019169644477541347,,,-1.7287486539898893,,0.0028114467081144716,0.0028114467081080206,0.06329453024207744,0.06329453024465542,0.0,7.742726985315595e-06
1626108408.747199,5.707456878292796e-10,2.403076688725379e-06,5.64,4.86,9.805110039451392e-07,9.121032235270832e-06,1.3414634466171265,-0.00634765625,0.0009765625,-5.577218063005294e-10,0.0016383324242828408,,,-1.72872543735156,,0.0038445726401574723,0.0038445726401467656,0.06461812514207012,0.06461812514445184,0.0,7.400464949626895e-06
1626108408.7891989,5.546601982136082e-10,2.2136922047671003e-06,5.64,4.86,9.835094942900469e-07,9.148925528279506e-06,1.3414634466171265,-0.00634765625,0.0009765625,-5.431575611639785e-10,0.0015653422362394125,,,-1.7287598370180635,,0.002811474633544768,0.0028114746335394306,0.06329705692503935,0.06329705692717841,0.0,6.985483414418787e-06
1626108408.849199,5.416492651286855e-10,2.03382908431703e-06,5.65,4.87,9.805110039451392e-07,9.121032235270832e-06,1.402438998222351,-0.01318359375,0.01513671875,-5.153134750761494e-10,0.001466293034406246,,,-1.7287651461867155,,0.0028114885075312596,0.0028114885075264,0.06330433723091689,0.06330433723286999,0.0,6.62919388002831e-06
1626108408.851199,5.133466894105408e-10,2.033829084175755e-06,5.65,4.87,9.805110039451392e-07,9.121032235270832e-06,1.402438998222351,-0.01318359375,0.01513671875,-5.204762956814179e-10,0.0018573030226624334,,,-1.7287496569598102,,0.002924202760986683,0.0029242027609814353,0.06344930571521373,0.06344930571717021,0.0,6.633261242935506e-06
1626108408.909199,5.187979629407451e-10,1.8631079395357103e-06,5.65,4.87,9.805110039451392e-07,9.121032235270832e-06,1.3414634466171265,-0.0107421875,0.00927734375,-4.954651744014863e-10,0.0017446124959315176,,,-1.7287549010436516,,0.0028113982917027046,0.002811398291698264,0.0633139729680478,0.0633139729698342,0.0,6.287094760115083e-06
1626108408.969199,4.712543498805436e-10,1.7011598754392865e-06,5.65,4.87,9.805110039451392e-07,9.121032235270832e-06,1.3414634466171265,-0.0107421875,0.00927734375,-4.73099418932504e-10,0.0016947357280638969,,,-1.7287560644924753,,0.0028113791937025593,0.0028113791936984897,0.06330739011330953,0.06330739011494604,0.0,5.957797569118077e-06
1626108409.029199,4.717356247884452e-10,1.5476484209789567e-06,5.65,4.88,9.805110039451392e-07,9.121032235270832e-06,1.3414634466171265,-0.0107421875,0.00927734375,-4.4894812474299577e-10,0.0015878250048054696,,,-1.7287603015464217,,0.0028114586287461044,0.0028114586287423856,0.06331455360143745,0.06331455360293992,0.0,5.642403111609669e-06
1626108409.089199,4.3669306765365297e-10,1.4022343676983962e-06,5.65,4.88,9.805110039451392e-07,9.121032235270832e-06,1.2804877758026123,-0.0146484375,0.0087890625,-4.3215800559423186e-10,0.0017592930184446279,,,-1.7287540559912322,,0.002811499668812158,0.00281149966880874,0.06329923476877891,0.06329923477016067,0.0,5.338811624038503e-06
1626108409.149199,4.305320270858908e-10,1.264602259764069e-06,5.64,4.87,9.835094942900469e-07,9.148925528279506e-06,1.2804877758026123,-0.0146484375,0.0087890625,-4.1114458576197427e-10,0.0016478093917691257,,,-1.7287578540565964,,0.00281154555043695,0.0028115455504338126,0.06330346845476062,0.06330346845603452,0.0,5.048528424655914e-06
1626108409.163199,4.097093437183269e-10,1.2646022596588158e-06,5.64,4.87,9.805110039451392e-07,9.121032235270832e-06,1.2195122241973877,0.00634765625,0.005859375,-4.099310720044448e-10,0.0020042501808991025,,,-1.728718954458713,,0.0036115182439573237,0.003611518243952215,0.06432284405753712,0.06432284405882935,0.0,5.066232778775531e-06
1626108409.247199,3.9781567615687655e-10,1.134426028613573e-06,5.64,4.87,9.805110039451392e-07,9.121032235270832e-06,1.3414634466171265,-0.00927734375,0.005859375,-3.835142247740416e-10,0.0018976224721548455,,,-1.7286739797942943,,0.005043131913381656,0.005043131913372797,0.06608763105352711,0.06608763105475224,0.0,4.812902122961406e-06
1626108409.269199,3.804463405244106e-10,1.0113993517179985e-06,5.64,4.87,9.835094942900469e-07,9.148925528279506e-06,1.3414634466171265,-0.00927734375,0.005859375,-3.8377853631576113e-10,0.0018514100240452967,,,-1.7287482991269412,,0.002811576416936084,0.0028115764169334098,0.06327776656961426,0.06327776657070384,0.0,4.502328072869704e-06
1626108409.329199,3.8182752026360347e-10,8.952301286468972e-07,5.64,4.87,9.805110039451392e-07,9.121032235270832e-06,1.2804877758026123,-0.00732421875,0.0,-3.665334325966462e-10,0.001734884392754972,,,-1.7287530343029651,,0.002811569965977293,0.0028115699659748217,0.0632825300358544,0.06328253003686593,0.0,4.2469949996300954e-06
1626108409.389199,3.5754600325441793e-10,7.856195383007205e-07,5.64,4.86,9.835094942900469e-07,9.148925528279506e-06,1.2804877758026123,-0.00732421875,0.0,-3.505720168800895e-10,0.0017060253825065467,,,-1.7287543007815462,,0.0028115372753434818,0.002811537275341187,0.06327078792144743,0.06327078792238848,0.0,4.001981889481174e-06
1626108409.449199,3.498597752531992e-10,6.822912854152947e-07,5.64,4.86,9.805110039451392e-07,9.121032235270832e-06,1.2804877758026123,-0.00830078125,0.0166015625,-3.318883946860842e-10,0.0015978592393934067,,,-1.7287592710740192,,0.0028115043876746158,0.002811504387672484,0.06327868501318297,0.06327868501406082,0.0,3.7681390852130997e-06
1626108409.455199,3.313203224640708e-10,6.822912853697469e-07,5.65,4.86,9.835094942900469e-07,9.148925528279506e-06,1.2804877758026123,-0.00830078125,0.0166015625,-3.316900182230503e-10,0.001778335470682056,,,-1.7287429374437087,,0.0031512215856941425,0.003151221585691473,0.06371427590188065,0.06371427590276486,0.0,3.772232861412713e-06
1626108409.509199,3.3129984600429964e-10,5.849681807453213e-07,5.65,4.86,9.805110039451392e-07,9.121032235270832e-06,1.2804877758026123,-0.00830078125,0.0166015625,-3.151904850707114e-10,0.001677304052276214,,,-1.7287566173656264,,0.0028114295099357523,0.0028114295099337643,0.06328423174368915,0.06328423174450998,0.0,3.544361975700256e-06
1626108409.5691988,3.0107099634882093e-10,4.933879019912574e-07,5.65,4.87,9.805110039451392e-07,9.121032235270832e-06,1.3414634466171265,-0.01513671875,0.005859375,-3.0042560932795546e-10,0.0018659971542235388,,,-1.7287508212460863,,0.0028113787859243046,0.002811378785922445,0.06328267107625218,0.0632826710770214,0.0,3.3301718959282987e-06
1626108409.629199,3.001379732003882e-10,4.0730277321059934e-07,5.65,4.87,9.835094942900469e-07,9.148925528279506e-06,1.3414634466171265,-0.01513671875,0.005859375,-2.8350303541482614e-10,0.0017484163357810256,,,-1.7287537881480186,,0.0028114049445544685,0.0028114049445527286,0.06329380460067795,0.06329380460140063,0.0,3.125783513976398e-06
1626108409.689199,2.742923228123168e-10,3.264699780988455e-07,5.65,4.86,9.77530703494267e-07,9.09330901777139e-06,1.2804877758026123,-0.009765625,0.005859375,-2.6997402334601555e-10,0.0017925084496391622,,,-1.7287516816113135,,0.0028114227452915755,0.00281142274528994,0.06328215767846376,0.06328215767914398,0.0,2.9299445206666914e-06
1626108409.749207,2.696832357937536e-10,2.5065531830972417e-07,5.65,4.86,9.835094942900469e-07,9.148925528279506e-06,1.2804877758026123,-0.005859375,0.00732421875,-2.5484404582683914e-10,0.0016789651338946388,,,-1.7287559930659422,,0.002811591608788755,0.0028115916087872194,0.06328937259712555,0.06328937259776737,0.0,2.743367745222721e-06
1626108409.809207,2.5574737710581207e-10,1.7964487258312456e-07,5.65,4.87,9.835094942900469e-07,9.148925528279506e-06,1.3414634466171265,-0.0107421875,0.017578125,-2.398287658558531e-10,0.0016606158943975374,,,-1.728757102636898,,0.0028113803036496202,0.0028113803036481713,0.06330349986900538,0.06330349986961227,0.0,2.565460264478971e-06
1626108409.8692071,2.317017727083399e-10,1.1320864399932818e-07,5.64,4.86,9.835094942900469e-07,9.148925528279506e-06,1.3414634466171265,-0.0107421875,0.017578125,-2.2848875580724066e-10,0.0019343956457164944,,,-1.7287481036906152,,0.0028113580388645907,0.0028113580388632207,0.06329620893891133,0.06329620893948613,0.0,2.3952847062234773e-06
1626108409.929207,2.283535298445293e-10,5.1142851806216705e-08,5.64,4.86,9.805110039451392e-07,9.121032235270832e-06,1.3414634466171265,-0.015625,0.0087890625,-2.153737334155195e-10,0.0018125459053468238,,,-1.728750910567822,,0.002811454238989747,0.002811454238988452,0.06330398695439596,0.06330398695494148,0.0,2.2333122610261045e-06
1626108409.989207,2.101802462800436e-10,-6.754934015945715e-09,5.64,4.86,9.835094942900469e-07,9.148925528279506e-06,1.3414634466171265,-0.015625,0.0087890625,-2.0484898793215881e-10,0.0018555872629210924,,,-1.7287485287870055,,0.0028115000654425114,0.0028115000654412824,0.06329035377809575,0.06329035377861417,0.0,2.078567888439851e-06
1626108410.049207,2.047530499180969e-10,-6.067563963998897e-08,5.64,4.86,9.805110039451392e-07,9.121032235270832e-06,1.402438998222351,-0.005859375,0.01220703125,-1.9302525922342212e-10,0.0017379363062617842,,,-1.7287530667417506,,0.0028115277420762697,0.0028115277420751035,0.06329604416921758,0.06329604416971116,0.0,1.9315070567599277e-06
1626108410.059207,1.9262140248346644e-10,-6.067563967565756e-08,5.63,4.87,9.835094942900469e-07,9.148925528279506e-06,1.402438998222351,-0.005859375,0.01220703125,-1.9237631454767343e-10,0.0019713801398472757,,,-1.7287260030556892,,0.003380328640446134,0.003380328640444452,0.06402312202880463,0.06402312202930571,0.0,1.9309003008294124e-06
1626108410.1092072,1.9225218553549811e-10,-1.1081107407266035e-07,5.63,4.87,9.805110039451392e-07,9.121032235270832e-06,1.402438998222351,-0.005859375,0.01220703125,-1.8326559097987139e-10,0.0018672482515085292,,,-1.7287479938259536,,0.0028115034734157466,0.0028115034734146373,0.06329408427521763,0.06329408427568815,0.0,1.7913879734574118e-06
1626108410.169207,1.7380204662005313e-10,-1.5734261705130338e-07,5.63,4.87,9.835094942900469e-07,9.148925528279506e-06,1.3414634466171265,-0.00927734375,0.00341796875,-1.7299214674638872e-10,0.0018648350310249936,,,-1.7287485245626926,,0.0028114458907723175,0.002811445890771261,0.06329418852346852,0.06329418852391765,0.0,1.6581009559697276e-06
1626108410.2472072,1.62099965417799e-10,-2.0044553822212244e-07,5.63,4.87,9.835094942900469e-07,9.148925528279506e-06,1.402438998222351,-0.00830078125,0.00732421875,-1.5847839005115698e-10,0.0015840929072154977,,,-1.7287278072027128,,0.003844571131279632,0.003844571131277757,0.06461779152407146,0.06461779152451294,0.0,1.5278892528424012e-06
1626108410.289207,1.5892940967793425e-10,-2.402891520293552e-07,5.64,4.88,9.805110039451392e-07,9.121032235270832e-06,1.402438998222351,-0.00830078125,0.00732421875,-1.5070543004540614e-10,0.0015134875153588535,,,-1.72876182759476,,0.0028114738581119336,0.002811473858110971,0.06329675337796847,0.06329675337837902,0.0,1.4109303647295738e-06
1626108410.3492072,1.514751769885814e-10,-2.7703099349685633e-07,5.64,4.88,9.835094942900469e-07,9.148925528279506e-06,1.2804877758026123,-0.005859375,-0.00732421875,-1.3970190588961266e-10,0.0014177012332079121,,,-1.7287672940881962,,0.0028114877796769694,0.00281148777967605,0.06330406128660923,0.06330406128700232,0.0,1.2965986853654452e-06
1626108410.351207,1.3927989693604898e-10,-2.7703099353786035e-07,5.64,4.86,9.805110039451392e-07,9.121032235270832e-06,1.2804877758026123,-0.005859375,-0.00732421875,-1.4076283554046485e-10,0.0017794590505073433,,,-1.7287528377841455,,0.0029242019746841307,0.0029242019746831354,0.06344902945700891,0.06344902945740324,0.0,1.296044663407173e-06
1626108410.409207,1.4148374660692947e-10,-3.108277373049682e-07,5.64,4.86,9.805110039451392e-07,9.121032235270832e-06,1.3414634466171265,-0.00732421875,0.01171875,-1.3076010634956143e-10,0.001671478208446634,,,-1.7287581508825625,,0.0028113976243080104,0.0028113976243071305,0.06331372854995251,0.06331372855032917,0.0,1.1880957977291533e-06
1626108410.469207,1.2619292672083807e-10,-3.4183009722373377e-07,5.65,4.87,9.805110039451392e-07,9.121032235270832e-06,1.3414634466171265,-0.00732421875,0.01171875,-1.2274820821254423e-10,0.001902783551615473,,,-1.7287499432684474,,0.0028113785967451435,0.0028113785967443005,0.06330718010864139,0.06330718010900246,0.0,1.0850079749210491e-06
1626108410.529207,1.2323295644823648e-10,-3.701787286920738e-07,5.65,4.87,9.805110039451392e-07,9.121032235270832e-06,1.3414634466171265,-0.013671875,0.0087890625,-1.1416641985595269e-10,0.0017828636459419308,,,-1.7287524982790865,,0.0028114581098165337,0.0028114581098157266,0.06331437982424869,0.06331437982459504,0.0,9.874063416345995e-07
1626108410.5892072,1.1140236512369412e-10,-3.960112443973413e-07,5.66,4.86,9.805110039451392e-07,9.121032235270832e-06,1.3414634466171265,-0.013671875,0.0087890625,-1.0691105519525186e-10,0.001793108286142592,,,-1.7287513254746523,,0.0028114992329320567,0.002811499232931283,0.06329909832891038,0.06329909832924262,0.0,8.947672964371044e-07
1626108410.649207,1.0738889224879469e-10,-4.1945745872254167e-07,5.66,4.86,9.805110039451392e-07,9.121032235270832e-06,1.3414634466171265,-0.00048828125,0.0048828125,-9.928492868385127e-11,0.0016794455284550765,,,-1.728755827777769,,0.0028115452007489166,0.0028115452007481745,0.06330336965664612,0.06330336965696502,0.0,8.072235546808484e-07
1626108410.7472072,9.094523294224206e-11,-4.406457439935455e-07,5.65,4.87,9.805110039451392e-07,9.121032235270832e-06,1.402438998222351,-0.00732421875,0.00927734375,-8.828630585070816e-11,0.001732778320495932,,,-1.728692772265645,,0.005042496933467604,0.005042496933465356,0.0661068806833751,0.06610688068370059,0.0,7.077205291374341e-07
1626108410.769207,8.892637963063922e-11,-4.596998415404112e-07,5.64,4.86,9.835094942900469e-07,9.148925528279506e-06,1.402438998222351,-0.00732421875,0.00927734375,-8.465421211043418e-11,0.0016905104491926055,,,-1.7287580711535044,,0.00281140496507797,0.002811404965077287,0.06330367680306823,0.06330367680336214,0.0,6.460988960670947e-07
1626108410.829207,8.533141976461099e-11,-4.7673412785029397e-07,5.64,4.86,9.835094942900469e-07,9.148925528279506e-06,1.2804877758026123,0.00146484375,0.0078125,-7.77948868815637e-11,0.0015839094523188834,,,-1.7287612813060884,,0.002811500315775278,0.0028115003157746224,0.0633090287013677,0.06330902870164995,0.0,5.721820847417128e-07
1626108410.8892071,7.706769244026418e-11,-4.918605083765815e-07,5.64,4.87,9.805110039451392e-07,9.121032235270832e-06,1.2804877758026123,0.00146484375,0.0078125,-7.207990654321457e-11,0.0017095948401132357,,,-1.728756099514408,,0.002811540188497775,0.002811540188497146,0.06329545435993325,0.0632954543602042,0.0,5.023446805313264e-07
1626108410.949207,7.271383678838404e-11,-5.051851528103282e-07,5.64,4.87,9.835094942900469e-07,9.148925528279506e-06,1.3414634466171265,-0.00830078125,-0.00048828125,-6.608112212935252e-11,0.0016011304270091157,,,-1.7287599752740295,,0.002811535761528971,0.0028115357615283673,0.06330067754380267,0.06330067754406281,0.0,4.3658758329112643e-07
1626108410.955207,6.60596305623367e-11,-5.051851528128091e-07,5.64,4.87,9.805110039451392e-07,9.121032235270832e-06,1.3414634466171265,-0.00830078125,-0.00048828125,-6.57534787684565e-11,0.0016342405922162649,,,-1.728748886433605,,0.0031512641131974167,0.0031512641131966586,0.06373624899137244,0.06373624899163512,0.0,4.3355645116797803e-07
1626108411.009207,6.643151045019301e-11,-5.168117048010486e-07,5.65,4.87,9.835094942900469e-07,9.148925528279506e-06,1.2804877758026123,-0.0078125,0.0009765625,-6.039846325365556e-11,0.0015412910778146958,,,-1.7287624384547795,,0.0028114704401628818,0.0028114704401623024,0.06330340874398471,0.06330340874423442,0.0,3.7464129979747027e-07
1626108411.069207,5.841917296896443e-11,-5.268387318338229e-07,5.64,4.87,9.77530703494267e-07,9.09330901777139e-06,1.2804877758026123,-0.0078125,0.0009765625,-5.546770190984173e-11,0.0017658900156658666,,,-1.7287558054345777,,0.002811420224073354,0.0028114202240727974,0.06329917369061364,0.06329917369085328,0.0,3.163284523875946e-07
1626108411.143207,5.036854200576477e-11,-5.353598611145566e-07,5.64,4.87,9.835094942900469e-07,9.148925528279506e-06,1.402438998222351,-0.00537109375,0.01123046875,-4.968022428583632e-11,0.0016427283071877904,,,-1.728735123726024,,0.003611372817300903,0.003611372817300025,0.06432723662761203,0.06432723662784719,0.0,2.540533924269763e-07
1626108411.189207,5.0327146041763874e-11,-5.424650095062693e-07,5.65,4.88,9.835094942900469e-07,9.148925528279506e-06,1.402438998222351,-0.00537109375,0.01123046875,-4.565581452763662e-11,0.001563013101098522,,,-1.7287613769748473,,0.0028114882807131255,0.0028114882807126138,0.0633016994312862,0.06330169943150672,0.0,2.1007496177264675e-07
1626108411.249207,4.6335984284251e-11,-5.482396141259334e-07,5.65,4.88,9.77530703494267e-07,9.09330901777139e-06,1.3414634466171265,-0.00244140625,0.00244140625,-4.1089693822940925e-11,0.0014640664259165047,,,-1.7287658799002517,,0.002811470836369099,0.002811470836368608,0.0633094491784805,0.06330944917869197,0.0,1.6182375879355918e-07
1626108411.309207,4.192372686341864e-11,-5.52766080976132e-07,5.65,4.86,9.77530703494267e-07,9.09330901777139e-06,1.2804877758026123,-0.00830078125,0.00537109375,-3.6923779861718864e-11,0.001523645309500413,,,-1.728764141464185,,0.0028113601434753286,0.002811360143474858,0.06332228568753294,0.0633222856877357,0.0,1.1662736864114461e-07
1626108411.3692071,3.612469703070188e-11,-5.56123034769774e-07,5.64,4.87,9.835094942900469e-07,9.148925528279506e-06,1.2804877758026123,-0.00830078125,0.00537109375,-3.3078015758436606e-11,0.0015767581554612326,,,-1.728762401773552,,0.0028113747793406703,0.0028113747793402193,0.06331288245707699,0.0633128824572712,0.0,7.431491424612274e-08
1626108411.429207,3.3730904905593794e-11,-5.583848328354912e-07,5.64,4.87,9.805110039451392e-07,9.121032235270832e-06,1.2804877758026123,-0.0087890625,0.01513671875,-2.93284543365741e-11,0.0014772194899015558,0.5,0.0,-1.7287659823719617,0.0,0.0028114827176935575,0.0028114827176931255,0.06331839858179578,0.06331839858198177,0.0,3.4795321747195246e-08
1626108411.489207,0.39151610500955697,-5.538275076167388e-07,5.64,4.86,9.805110039451392e-07,9.121032235270832e-06,1.2804877758026123,-0.0087890625,0.01513671875,0.02327023659955742,0.0017044100459390138,0.5,0.0,-1.72875728575006,0.0,0.002811530418557276,0.002811530250523381,0.06330261362607052,0.06330261398648405,0.0,1.3614017599181668e-08
1626108411.549207,0.381036856869983,-5.601007057967797e-07,5.64,4.86,0.02742835134267807,0.18200187385082245,-2.5,0.00732421875,-0.01171875,0.04520929027124778,0.0017703581004657688,0.5,0.0,-1.7257866041104422,0.0,0.0028115578135462956,0.0028115558290006393,0.06330636714859672,0.06330637338735631,0.0,-4.421334994348939e-08
1626108411.559207,0.3638325677826152,-5.689991890636792e-07,5.64,4.86,0.09800466895103455,-1.1564743545022793e-05,-2.5,0.00732421875,-0.01171875,0.04884761247802856,0.004606231010864165,0.5,0.0,-1.7256565227934166,0.0,0.0033803718545569223,0.003380368267930771,0.06403338712479487,0.0640333934091498,0.0,-7.411440267936808e-08
1626108411.6092072,0.3610609839304943,6.089015178115021e-06,5.64,4.86,0.19736742973327637,-0.06626240909099579,-1.7682926654815674,0.0283203125,-0.24169921875,0.06727247086679437,0.004606988573480742,0.5,0.0,-1.7206629172376138,0.0,0.002811533880505219,0.0028115279117116258,0.06330271346303364,0.06330274237669892,0.0,1.8000224123538952e-05
1626108411.669207,0.3380047742684309,1.6394556208581206e-05,5.64,4.86,0.30615976452827454,-0.032895639538764954,-1.7682926654815674,0.0283203125,-0.24169921875,0.0911775934386305,0.01311510508029136,0.5,0.0,-1.7194423229542852,0.0,0.0028115774594090004,0.0028115662059367535,0.06328432139414017,0.06328440371220305,0.0,4.671087632706925e-05
1626108411.729207,-0.08806429103347992,1.541862276169831e-05,5.64,4.86,0.41326531767845154,-0.03314279392361641,1.4634146690368652,-0.02197265625,-0.2119140625,0.09417698081706027,0.012198681099361178,0.5,0.0,-1.721249194270013,0.0,0.0028115923929947625,0.0028115710409130717,0.06328844621704821,0.06328864083087321,0.0,4.5712940041983334e-05
1626108411.789207,-0.08718096147662757,-1.8466158308113494e-06,5.65,4.84,0.493973046541214,-7.867857493693009e-05,1.4634146690368652,-0.02197265625,-0.2119140625,0.1030416478737981,0.0069756930169249335,0.5,0.0,-1.7235272483294144,0.0,0.0028115657461280944,0.002811546068968795,0.06327847698288817,0.06327881016647849,0.0,2.6830972411319637e-08
1626108411.8492072,-0.09560144051352382,-2.646790927128949e-05,5.65,4.84,0.493973046541214,-7.867857493693009e-05,3.47560977935791,-0.15771484375,-0.23291015625,0.11709138979393852,0.006456466908525855,0.5,0.0,-1.7248590570412916,0.0,0.002811522186365007,0.002811499497259728,0.06328651338237015,0.06328700867399153,0.0,-6.737808669842023e-05
1626108411.851207,-0.11709138968187373,-2.6523635577894866e-05,5.65,4.82,0.5370799899101257,-7.222781277960166e-06,3.47560977935791,-0.15771484375,-0.23291015625,0.11685722431539654,0.004212366135619983,0.5,0.0,-1.7249185604145703,0.0,0.0029242367255954624,0.00292421240025361,0.06343147896789902,0.06343197494951935,0.0,-6.759422150518151e-05
1626108411.909207,-0.10795010449801087,-4.4735825859092875e-05,5.65,4.82,0.5313887000083923,-0.016488218680024147,2.804877996444702,0.03271484375,0.228515625,0.1342912305810669,0.003927117066610017,0.5,0.0,-1.725537903649476,0.0,0.0028114085008192806,0.0028113809870481737,0.06329778954243492,0.06329847075074335,0.0,-0.00011954228012735296
1626108411.969207,-0.118594160670842,-5.834550690504798e-05,5.66,4.78,0.5153363943099976,0.016494393348693848,2.804877996444702,0.03271484375,0.228515625,0.15224296336184814,-0.0025126257581324068,0.5,0.0,-1.7263937724031635,0.0,0.002811384524695506,0.002811351704855319,0.06329310492212127,0.06329399760197872,0.0,-0.0001602684265073186
1626108412.029207,-0.14295426407961975,-7.179948908031755e-05,5.66,4.78,0.5039622187614441,-0.016540132462978363,1.402438998222351,0.205078125,0.02294921875,0.16836278882194963,-0.0024010480855746873,0.5,0.0,-1.7272740739631405,0.0,0.002811477301161873,0.0028114296536284732,0.06330215136396268,0.06330332218441603,0.0,-0.00020120098736342993
1626108412.0892072,-0.15451523669521056,-7.520553687849797e-05,5.69,4.77,0.5054935216903687,-0.016681989654898643,1.402438998222351,0.205078125,0.02294921875,0.18238997745130642,-0.0002983569918282075,0.5,0.0,-1.727212284806306,0.0,0.0028115271660092388,0.002811472586392828,0.06328860110537539,0.063290101873596,0.0,-0.0002155106328642437
1626108412.149207,-0.1741293777020317,-7.159981714785997e-05,5.69,4.77,0.5054935216903687,-0.016681989654898643,-1.2195122241973877,0.08544921875,0.1142578125,0.1939138758319936,-0.0002684061667998503,0.5,0.0,-1.7270205609180482,0.0,0.002811593394652078,0.0028115220108746774,0.06329444253796943,0.06329636685605582,0.0,-0.00021071278626829908
1626108412.2468052,-0.20403600119042814,-6.413010817904025e-05,5.56,4.96,0.499414324760437,6.349223986035213e-05,3.5365853309631348,-0.25,-0.43359375,0.1963646296604297,0.005153100033309297,0.5,0.0,-1.7263192411070807,0.0,0.00501815183129408,0.005017839558927923,0.06606956953053494,0.06607205007795201,0.0,-0.00019735475938288465
1626108412.268805,-0.1887498592969032,-5.7925871296745336e-05,5.58,4.89,0.495737761259079,0.01633715070784092,3.5365853309631348,-0.25,-0.43359375,0.21279239552444798,0.00503249004855902,0.5,0.0,-1.726387551586618,0.0,0.0028065112663501124,0.0028064319982203955,0.06329175275607705,0.0632946708722448,0.0,-0.00018184614146462104
1626108412.328805,-0.20544170890126578,-5.633677594732863e-05,5.58,4.89,0.5011674761772156,0.016522817313671112,3.1097562313079834,0.171875,0.2255859375,0.22001505531912233,0.004708222764566377,0.5,0.0,-1.7265294835930194,0.0,0.0028105118968594868,0.0028104130707479746,0.06330281835097142,0.06330630661111139,0.0,-0.00018087007323406572
1626108412.3888052,-0.20802776209408533,-5.747445273691154e-05,5.59,4.8,0.5035666823387146,0.016542965546250343,3.1097562313079834,0.171875,0.2255859375,0.22647621300166232,0.006351590319115331,0.5,0.0,-1.72670716692956,0.0,0.0028114036417217175,0.0028113016073758987,0.06329099873012838,0.06329507411697756,0.0,-0.00018716249418213347
1626108412.448805,-0.21939768771731039,-6.100127551132655e-05,5.59,4.8,0.5035666823387146,0.016542965546250343,0.9756097793579102,0.41650390625,-0.44091796875,0.2321391196355223,0.005931883309671501,0.5,0.0,-1.727006896606639,0.0,0.002811596395546994,0.0028114814670088355,0.06329715603291865,0.06330187314227137,0.0,-0.0002001335838190191
1626108412.4548051,-0.23213911934629863,-6.072558081279284e-05,5.59,4.85,0.49545878171920776,-8.578120286983903e-06,0.9756097793579102,0.41650390625,-0.44091796875,0.23074627605409498,0.008892986428301415,0.5,0.0,-1.7268635241712436,0.0,0.003151348223262749,0.0031512081580822755,0.06373275775801249,0.0637374936584129,0.0,-0.00019966311436488281
1626108412.508805,-0.2238999865479459,-6.258523306971937e-05,5.59,4.85,0.4429880380630493,-5.9531717852223665e-05,0.7317073345184326,0.02392578125,0.11376953125,0.2369113234254272,0.008373523323677466,0.5,0.0,-1.727219528839331,0.0,0.0028115753319477416,0.002811456122977044,0.06330062489909315,0.06330599310415666,0.0,-0.00020794630397010503
1626108412.568805,-0.2188259035415603,-6.33115330058253e-05,5.58,4.75,0.35961440205574036,0.01652188040316105,3.1097562313079834,0.01220703125,0.00146484375,0.2398040481013462,0.007716723701437877,0.5,0.0,-1.7273689357799051,0.0,0.0028115305963682764,0.0028114149813575685,0.06329703880078785,0.0633030250132987,0.0,-0.0002136806222854008
1626108412.642805,-0.23854427017757515,-6.257987593239895e-05,5.58,4.75,0.2561798095703125,-0.016513066366314888,3.1097562313079834,0.01220703125,0.00146484375,0.23520466431270234,0.005372185498103086,0.5,0.0,-1.7272360050579547,0.0,0.003611578647588663,0.003611370044104373,0.06432574692749898,0.06433241798666042,0.0,-0.00021645486280841668
1626108412.688805,-0.23227876770844752,-5.939686616669662e-05,5.6,4.66,0.14549213647842407,-8.025243005249649e-05,1.6463414430618286,0.0361328125,0.1689453125,0.23235329621876633,0.0050970821732193175,0.5,0.0,-1.727663416759027,0.0,0.002811616676829433,0.0028114876728516794,0.06330064065000784,0.06330782828182971,0.0,-0.0002105912300131826
1626108412.748805,-0.2316455679680477,-5.433345098679168e-05,5.6,4.66,0.06076399236917496,-0.016511203721165657,1.6463414430618286,0.0361328125,0.1689453125,0.2203364580032547,0.004776414449058389,0.5,0.0,-1.7276421477821362,0.0,0.0028115988379385365,0.002811471362566385,0.06330882420029002,0.0633165535341129,0.0,-0.00020035594577338915
1626108412.808805,0.222131732998994,-4.8070124028682946e-05,5.62,4.59,0.04934081435203552,-0.016613127663731575,1.4634146690368652,-0.013671875,0.06298828125,0.22941474938547135,0.007405554808013852,0.5,0.0,-1.727337086086785,0.0,0.0028114751844860284,0.0028113613373570087,0.06332203135966497,0.06333020261567511,0.0,-0.00018640563410420583
1626108412.8688052,0.20576462318045685,-4.183089432272017e-05,5.63,4.55,0.08056328445672989,-0.016562476754188538,2.865853786468506,0.04833984375,-0.310546875,0.23292688078182686,0.0058604365501427015,0.5,0.0,-1.7274774810304372,0.0,0.0028114949456625495,0.002811376955202372,0.06331294180224319,0.06332146716282278,0.0,-0.00017229167719383923
1626108412.928805,0.20985525081337547,-3.58994223795417e-05,5.63,4.55,0.17911767959594727,-0.01659071445465088,2.865853786468506,0.04833984375,-0.310546875,0.2354022973364354,0.005487739083735225,0.5,0.0,-1.7275420787052396,0.0,0.00281162727973399,0.0028114862548467663,0.06331872026773415,0.0633276389286416,0.0,-0.00015861587148062012
1626108412.988805,0.20424573155348588,-3.0187266299042382e-05,5.65,4.52,0.3000916540622711,-0.016421038657426834,2.865853786468506,0.04833984375,-0.310546875,0.2396936366749002,0.00946780756828022,0.5,0.0,-1.727041512600057,0.0,0.0028116728996554433,0.0028115343576381757,0.06330315202663304,0.063312447502729,0.0,-0.00014499320652688506
1626108413.048805,-0.24063735154687135,-2.4527869452300328e-05,5.65,4.52,0.3932487666606903,-5.7839359214995056e-05,1.8292683362960815,0.01953125,-0.203125,0.2205172432561095,0.00794843483648533,0.0,0.0,-1.726835612101418,0.0,0.003380579967673748,0.003380375438020321,0.06403414309175325,0.06404393344805859,0.0,-0.00013191523668470143
1626108413.058805,-0.22274468841112582,-2.462836622578976e-05,5.66,4.48,0.3932487666606903,-5.7839359214995056e-05,-1.1585365533828735,-0.0595703125,-0.22314453125,0.2205172432561095,0.00794843483648533,0.0,0.0,-1.726835612101418,0.0,0.003380579967673748,0.003380375438020321,0.06403414309175325,0.06404393344805859,0.0,-0.00013191523668470143
1626108413.142805,-0.21384087004482005,-2.0234362614878743e-05,5.66,4.48,0.45083487033843994,1.0989728252752684e-05,-1.1585365533828735,-0.0595703125,-0.22314453125,0.20657029869897173,0.010044210392258494,0.0,0.0,-1.726466345233238,0.0,0.004799520168181909,0.004799129877786528,0.06579779541238738,0.06580806853251545,0.0,-0.0001216708708333595
1626108413.1688051,-0.2026511288542819,-2.0832625355725275e-05,5.68,4.45,0.39930933713912964,-0.016523726284503937,-0.7317073345184326,0.24560546875,-0.033203125,0.20814656651657232,0.006046180477967632,0.0,0.0,-1.727901116797715,0.0,0.0038450331495606845,0.003844820709885984,0.06460205491306131,0.0646124947851123,0.0,-0.00013365626500826385
1626108413.2468052,-0.21196190853181587,-2.3922827743754418e-05,5.68,4.45,0.303627610206604,0.016472049057483673,-0.7317073345184326,0.24560546875,-0.033203125,0.2097748510790736,0.005770787161012741,0.0,0.0,-1.7281367195888533,0.0,0.002811661906695551,0.0028115512188112246,0.06327948474322524,0.06328983399951024,0.0,-0.00013716011131634513
1626108413.288805,-0.20434052571429145,-2.4833876207429147e-05,5.7,4.4,0.18087482452392578,5.69317999179475e-05,1.8292683362960815,-0.02734375,0.193359375,0.20225547535285587,0.005390804194770996,0.0,0.0,-1.7283892669922452,0.0,0.002811617447554044,0.0028115046236666832,0.06328755687406265,0.06329790833238241,0.0,-0.00013400540420102224
1626108413.3488052,-0.20791136148297576,-2.3140379539843576e-05,5.7,4.4,0.07019411027431488,0.032975926995277405,1.8292683362960815,-0.02734375,0.193359375,0.20185099458325073,0.009474441732510405,0.0,0.0,-1.7282456670262498,0.0,0.0029243375615174137,0.002924217916375489,0.06343252842711104,0.06344289183309443,0.0,-0.00013248781453686835
1626108413.350805,-0.20225547508511232,-2.2635450702504766e-05,5.73,4.38,0.07019411027431488,0.032975926995277405,1.1585365533828735,-0.0244140625,0.13623046875,0.18893412978637467,0.008912722908848036,0.0,0.0,-1.7279812079671435,0.0,0.002811490688403535,0.0028113858396699954,0.06329885262407096,0.06330915912342505,0.0,-0.00012725910375931346
1626108413.4088051,-0.2022959675159041,-2.0245106402926502e-05,5.73,4.38,0.006064739543944597,-0.01635572873055935,1.1585365533828735,-0.0244140625,0.13623046875,0.17106128419936298,0.002938457091586064,0.0,0.0,-1.7280538479915668,0.0,0.002811443897879194,0.0028113559174946755,0.06329417569127135,0.06330433155323364,0.0,-0.00012114020410745627
1626108413.468805,-0.18268847347093214,-1.7473105202628727e-05,5.75,4.35,8.220712857109902e-07,7.64717515266966e-06,0.8536585569381714,-0.02197265625,0.0068359375,0.1516839543078639,0.002753539898291928,0.0,0.0,-1.7280504228804245,0.0,0.0028115160057153236,0.002811433299389976,0.06330321929503456,0.0633131488693923,0.0,-0.00011275400648465939
1626108413.528805,-0.1744134628749276,-1.4009758599697918e-05,5.76,4.35,8.220712857109902e-07,7.64717515266966e-06,0.8536585569381714,-0.02197265625,0.0068359375,0.13320403329947417,0.00401446842147137,0.0,0.0,-1.7279987920962914,0.0,0.002811538507540341,0.0028114726316749794,0.0632896525722751,0.06329924278450982,0.0,-0.00010357884495433633
1626108413.588805,-0.15062450009777814,-1.0362719147984913e-05,5.76,4.35,8.220712857109902e-07,7.64717515266966e-06,1.1585365533828735,-0.01220703125,0.0029296875,0.11622348398302353,0.003760451080146807,0.0,0.0,-1.7279998869513773,0.0,0.002811584908307816,0.0028115265456070127,0.06329548079076608,0.06330465702785887,0.0,-9.516039164698478e-05
1626108413.6488051,-0.136508875029652,-7.042617785267958e-06,5.76,4.33,8.245852427535283e-07,7.670560989936348e-06,1.1585365533828735,-0.01220703125,0.0029296875,0.11622348363103645,0.002317550817632187,0.0,0.0,-1.7280444567638675,0.0,0.002811584906583267,0.0028115265455632573,0.06329548079076595,0.06330465676882199,0.0,-9.566337366266247e-05
1626108413.7468052,-0.10110647103188788,-4.282486399590735e-06,5.77,4.31,8.220712857109902e-07,7.64717515266966e-06,1.1585365533828735,-0.0048828125,-0.00537109375,0.08787518394010116,0.001971043344968591,0.0,0.0,-1.7280741672970097,0.0,0.0028114271891277525,0.0028113899240075797,0.06329838873900143,0.06330652989743123,0.0,-8.116630885454531e-05
1626108413.768805,-0.09992508437909067,-1.624434348071064e-06,5.77,4.31,8.245852427535283e-07,7.670560989936348e-06,1.2804877758026123,-0.01123046875,0.01318359375,0.07624771423651192,0.0018464727831193843,0.0,0.0,-1.7280831463589053,0.0,0.002811521573680963,0.0028114879757096937,0.06330481207090788,0.06331237475352518,0.0,-7.474122902011324e-05
1626108413.828805,-0.09021197500889507,7.724388497679449e-07,5.78,4.31,8.220712857109902e-07,7.64717515266966e-06,1.2804877758026123,-0.01123046875,0.01318359375,0.06617641175739672,0.001707087080631868,0.0,0.0,-1.72809037148416,0.0,0.0028115583016753605,0.0028115302630444556,0.06329217448965307,0.06329914422458766,0.0,-6.875319431844036e-05
1626108413.8888052,-0.07661039948932435,2.9525706179263406e-06,5.78,4.31,8.245852427535283e-07,7.670560989936348e-06,1.2804877758026123,-0.02099609375,0.0078125,0.05737660662754151,0.0015986322092415965,0.0,0.0,-1.7280967612843368,0.0,0.0028115525457335557,0.0028115280154631696,0.06329821035862379,0.0633045972326751,0.0,-6.32016568072829e-05
1626108413.948805,-0.06795206553082803,4.92775222491819e-06,5.79,4.32,8.220712857109902e-07,7.64717515266966e-06,1.2804877758026123,-0.02099609375,0.0078125,0.05703234464541091,0.0019527908682152799,0.0,0.0,-1.7280741152517969,0.0,0.003151284357987347,0.0031512546802659846,0.06373381938308041,0.06374022427353794,0.0,-6.308945443086977e-05
1626108413.9548051,-0.05737660660682985,4.95378124455591e-06,5.79,4.32,8.245852427535283e-07,7.670560989936348e-06,1.3414634466171265,-0.0068359375,-0.00390625,0.04975588081281447,0.05038069866099759,0.0,0.0,-1.7269406884140979,1.0,0.002811485522586962,0.00281146458557729,0.06330164394661819,0.06330746447196169,0.0,-5.417641982901245e-05
1626108414.008805,-0.05857498439739088,8.101393499942221e-06,5.79,4.31,8.245852427535283e-07,7.670560989936348e-06,1.3414634466171265,-0.0068359375,-0.00390625,0.04314996806539298,0.06789754182274449,0.0,0.0,-1.7262663193823566,1.0,0.002811433475292606,0.0028114158455982132,0.06329801695197548,0.06330329296019066,0.0,-4.689223478369826e-05
1626108414.068805,-0.04860702500740436,1.0917548442117642e-05,5.79,4.31,0.00010517530608922243,0.18077394366264343,1.2804877758026123,0.00439453125,0.00341796875,0.03687783232617758,0.12395209617367202,0.0,0.0,-1.7206076761246245,1.0,0.003611392427782719,0.003611367830036637,0.06432668121181433,0.06433147137953893,0.0,-3.512102111579302e-05
1626108414.142805,-0.03740145148909766,1.494884663618843e-05,5.8,4.31,0.008821628987789154,0.42995738983154297,1.2804877758026123,0.00439453125,0.00341796875,0.032219366691751974,0.16068806928235546,0.0,0.0,-1.7062231451361767,1.0,0.0028114990496840415,0.0028114854424132283,0.06330153173431184,0.06330581291346646,0.0,-4.398269814734757e-05
1626108414.188805,-0.03796552593374327,1.1593035847225716e-05,5.8,4.31,0.005993640515953302,0.526002824306488,-22.80487823486328,-0.02001953125,-0.0771484375,0.027528917391092433,0.2069836545773366,0.0,0.0,-1.6821362032445641,1.0,0.002811470872275271,0.0028114589179104635,0.06330996629996309,0.0633138020101807,0.0,-6.526414879911085e-05
1626108414.248805,-0.03323343614781751,3.844565467021371e-06,5.8,4.3,0.009045595303177834,0.7937530279159546,-22.80487823486328,-0.02001953125,-0.0771484375,0.027528927775250817,0.24254459172976553,0.0,0.0,-1.6809445536343026,1.0,0.00281147087197901,0.0028114589179049484,0.06330996629996286,0.06331380195228827,0.0,-6.0152211341482485e-05
1626108414.308805,-0.028479501143422282,-8.412377874007445e-06,5.79,4.29,0.014396291226148605,0.9203946590423584,-47.92683029174805,-0.04443359375,-0.0107421875,0.01953363537353725,0.21818376775582687,0.0,0.0,-1.6012940829333826,1.0,0.0028112677615609568,0.002811258701905437,0.06331845129898596,0.06332149870645895,0.0,-0.00015715869962069679
1626108414.3688052,-0.02318945364951262,-2.882198465833063e-05,5.79,4.29,0.01309310644865036,0.9756895899772644,-56.34146499633789,-0.0849609375,0.13623046875,0.016185974477508944,0.2088077490338261,0.0,0.0,-1.549846313955716,0.0,0.002811293947991257,0.0028112858630119026,0.06332962149201818,0.06333232506157943,0.0,-0.00022832544727843053
1626108414.428805,-0.02033359781256221,-5.338238853565276e-05,5.78,4.3,0.00874706543982029,0.9396986365318298,-56.34146499633789,-0.0849609375,0.13623046875,0.013377997321547768,0.20139569336408827,0.0,0.0,-1.4951369165382804,0.0,0.002811214651107248,0.0028112076104928763,0.06332289313690435,0.06332528370584613,0.0,-0.00028853418808280607
1626108414.488805,-0.016444148406576535,-7.33827837003274e-05,5.78,4.3,0.002736481372267008,0.4134178161621094,-37.621952056884766,0.00146484375,0.12890625,0.011109085210355248,0.1937797282632029,0.0,0.0,-1.4499334115209288,0.0,0.0028111647809475424,0.0028111586330097785,0.06333747150423731,0.06333957995581478,0.0,-0.000317198202272713
1626108414.548805,-0.013916995489231487,-8.146864899248437e-05,5.75,4.29,0.0003676653141155839,-0.03304114565253258,-37.621952056884766,0.00146484375,0.12890625,0.011109085210355248,0.1937797282632029,0.0,0.0,-1.4499334115209288,0.0,0.0028111647809475424,0.0028111586330097785,0.06333747150423731,0.06333957995581478,0.0,-0.000317198202272713
1626108414.642805,-0.009400970334107802,-7.571556659101594e-05,5.73,4.3,0.002153174253180623,-0.01654326356947422,4.939024448394775,-0.0341796875,-0.03466796875,0.008109154444200193,0.15375945318293047,0.0,0.0,-1.4187144001095118,0.0,0.0028111825472430397,0.002811178008879295,0.06335185773677302,0.06335348311875535,0.0,-0.00028376351268201145
1626108414.6688051,-0.009351349089843284,-6.485328784074237e-05,5.73,4.3,1.1134710575788631e-06,-1.0357869541621767e-05,1.3414634466171265,0.00732421875,0.0078125,0.0068482035151013615,0.13277330033953147,0.0,0.0,-1.41248548805744,0.0,0.004117667573519623,0.0041176595692484184,0.06501184311795906,0.06501326724544587,0.0,-0.00026267672680738396
1626108414.751441,-0.00700681630717025,-5.507102335980544e-05,5.72,4.29,1.1168760920554632e-06,-1.0389544513600413e-05,1.3414634466171265,0.00732421875,0.0078125,0.006006445841262344,0.12651631233980748,0.0,0.0,-1.4141012393362884,0.0,0.002867468900931018,0.002867465385621793,0.06340518482958796,0.06340641209152538,0.0,-0.00023954109861865796
1626108414.793441,-0.007051425310956616,-4.572667347957624e-05,5.72,4.29,1.1134710575788631e-06,-1.0357869541621767e-05,1.2195122241973877,0.00732421875,0.0048828125,0.005195034523124636,0.11813649744363809,0.0,0.0,-1.4139261829975933,0.0,0.0028236409823634997,0.0028236380257486895,0.06335551857492414,0.06335658286658226,0.0,-0.0002209157414844022
1626108414.853441,-0.006172186415994471,-3.7906286672691586e-05,5.71,4.3,1.1134710575788631e-06,-1.0357869541621767e-05,1.2195122241973877,0.00732421875,0.0048828125,0.005184639473468265,0.11004335162130818,0.0,0.0,-1.413990951166787,0.0,0.002936420004031868,0.00293641682449998,0.06350056703298257,0.06350163136079334,0.0,-0.00022138126618428912
1626108414.855441,-0.005195035996716066,-3.8008642920630944e-05,5.71,4.3,1.1134710575788631e-06,-1.0357869541621767e-05,1.3414634466171265,-0.0087890625,0.00048828125,0.004499714869876036,0.1028932251424809,0.0,0.0,-1.414349068873954,0.0,0.0028140593352301456,0.002814056794814803,0.06335237599529525,0.06335329754493778,0.0,-0.0002049065798399881
1626108414.9134412,-0.005325908226627571,-3.118783317739873e-05,5.71,4.3,1.1134710575788631e-06,-1.0357869541621767e-05,1.3414634466171265,-0.0087890625,0.00048828125,0.0039008847757394994,0.04737304820409155,0.0,0.0,-1.416490908894713,0.0,0.0028119931153563925,0.002811990927239874,0.06334136127249118,0.06334215671764876,0.0,-0.0001921298190955556
1626108414.9734411,-0.004414467116210864,-2.5626170542873675e-05,5.71,4.3,1.1134710575788631e-06,-1.0357869541621767e-05,1.3414634466171265,-0.00537109375,0.0029296875,0.0033465572312396854,0.024716011297266256,0.0,0.0,-1.417267483913567,0.0,0.0033804617514618033,0.0033804590901861174,0.0640727356329358,0.06407341936305957,0.0,-0.00017962383772194903
1626108415.043441,-0.003380373038396362,-2.036191042563499e-05,5.71,4.31,1.1134710575788631e-06,-1.0357869541621767e-05,1.3414634466171265,-0.00537109375,0.0029296875,0.0029308970347455892,0.023389153594875298,0.0,0.0,-1.4178718872594382,0.0,0.002811576464122164,0.0028115748367255077,0.06333983848593859,0.06334042558467093,0.0,-0.00016722658356338167
1626108415.093441,-0.003437761316138552,-1.5473983536156783e-05,5.71,4.31,1.1168760920554632e-06,-1.0389544513600413e-05,1.2195122241973877,-0.01318359375,0.01708984375,0.002540163407100537,0.021887668974957083,0.0,0.0,-1.418073271397882,0.0,0.002811522753020172,0.0028115213571095012,0.06334555733227318,0.06334605919022779,0.0,-0.0001559050265121223
1626108415.1534412,-0.003009915657966536,-1.100179963129199e-05,5.7,4.31,1.1168760920554632e-06,-1.0389544513600413e-05,1.2195122241973877,-0.01318359375,0.01708984375,0.0025401603282708927,0.0144221683524508,0.0,0.0,-1.4183105401801024,0.0,0.0028115227530156866,0.002811521357109435,0.0633455573322728,0.06334605918931777,0.0,-0.00015605824858539564
1626108415.251441,-0.0022016474678681025,-6.973703477424968e-06,5.71,4.3,0.000369447807315737,0.033024564385414124,1.3414634466171265,-0.00830078125,0.00390625,0.0019096317003889482,0.08203977286854415,0.0,0.0,-1.4167721007697778,1.0,0.0028114613454654934,0.0028114603304506547,0.06334026617892845,0.06334062882597255,0.0,-0.00013535809439772962
1626108415.273441,-0.0021773073263669446,-3.0218225288430316e-06,5.71,4.3,0.000369447807315737,0.033024564385414124,-0.8536585569381714,-0.0166015625,-0.02197265625,0.0016504373450984145,0.13130633188514299,0.0,0.0,-1.4143456578579048,1.0,0.002811570560945719,0.002811569698470111,0.06334180535076894,0.06334211192471494,0.0,-0.0001253791782799803
1626108415.333441,-0.001962783612650489,6.931944543939457e-07,5.7,4.29,0.010615291073918343,0.4134232997894287,-0.8536585569381714,-0.0166015625,-0.02197265625,0.0011692625376731453,0.16943753216950638,0.0,0.0,-1.403758247578666,1.0,0.002811611076023966,0.0028116103479382338,0.06332453763350737,0.06332479574937816,0.0,-0.00011827979327597252
1626108415.3934412,-0.0017547783991266606,3.259333363492638e-06,5.7,4.29,0.010406005196273327,0.741809606552124,-33.780487060546875,-0.0419921875,-0.04443359375,0.0005417071258874189,0.2155895710478049,0.0,0.0,-1.3758106849585006,1.0,0.002811598831878109,0.0028115982216717515,0.06332645610251564,0.06332667268345663,0.0,-0.00012155354834118614
1626108415.4534411,-0.00137411284438249,1.962873069692829e-06,5.68,4.29,0.008398204110562801,0.9096447825431824,-33.780487060546875,-0.0419921875,-0.04443359375,0.0005384568604011587,0.21429602457501964,0.0,0.0,-1.3745248998188315,0.0,0.003151323390066414,0.003151322640450248,0.0637620624431267,0.06376227835724173,0.0,-0.00012154177102040256
1626108415.4594412,-0.0005417071258874189,1.962873069692829e-06,5.68,4.29,0.007898559793829918,0.6923627257347107,-50.3658561706543,-0.07080078125,0.005859375,-4.26671804792465e-05,0.1995486574348391,0.0,0.0,-1.329039368870223,0.0,0.0045569797785219215,0.004556978592485655,0.06552489760781156,0.06552507568705793,0.0,-0.00013193239684056938
1626108415.543441,4.398678270182944e-05,-1.8390659609037105e-06,5.66,4.31,0.0014932542107999325,0.13240042328834534,-50.3658561706543,-0.07080078125,0.005859375,-0.0005537785982625804,0.19772378214563197,0.0,0.0,-1.2900416396554577,0.0,0.002811441953882716,0.0028114415433171972,0.06331212448382782,0.063312275357775,0.0,-0.0001454770300396217
1626108415.573441,-0.00014519847075028134,-6.699920583877633e-06,5.66,4.31,0.0014932542107999325,0.13240042328834534,-3.47560977935791,0.0517578125,0.08251953125,-0.0007687851590657622,0.16166548910367848,0.0,0.0,-1.2590911057390146,0.0,0.0036111692233389593,0.0036111687102906953,0.06433996384896533,0.0643400881578367,0.0,-0.0001409691948289821
1626108415.6474411,0.0007796912113961515,-4.779512084152329e-06,5.64,4.32,8.167694431904238e-07,-7.597855528729269e-06,-3.47560977935791,0.0517578125,0.08251953125,-0.0008222537460206647,0.1544525654357158,0.0,0.0,-1.2504593503846784,0.0,0.002811360298908376,0.0028113600339156,0.0633174042652527,0.06331750834385491,0.0,-0.00012901146247788078
1626108415.6934412,0.0007361804048023814,-2.8719178374896763e-07,5.64,4.32,8.217650133701682e-07,-7.644325705769006e-06,0.792682945728302,-0.0126953125,0.0146484375,-0.0007818710427659308,0.14449873476356415,0.0,0.0,-1.246007936449893,0.0,0.0028113928452738355,0.002811392630641475,0.06332714411961257,0.06332723047166665,0.0,-0.00011773111858564817
1626108415.753441,0.0008189635165618871,3.869334104253598e-06,5.63,4.32,8.167694431904238e-07,-7.597855528729269e-06,0.792682945728302,-0.0126953125,0.0146484375,-0.0007818753634241315,0.13075863493791648,0.0,0.0,-1.2465411290953272,0.0,0.002811392845273835,0.0028113926306414685,0.06332714411961245,0.06332723047162905,0.0,-0.00011780691074985482
1626108415.813441,0.0007908776237759419,7.3484794438175224e-06,5.62,4.32,8.19259639683878e-07,-7.621019904036075e-06,1.2195122241973877,-0.01904296875,0.0087890625,-0.0006318392917100997,0.05009572185752456,0.0,0.0,-1.246983630629799,0.0,0.0028113845039765438,0.0028113843598080394,0.06333056133346301,0.06333062119971128,0.0,-9.973119296784289e-05
1626108415.8734412,0.0006941065372470808,1.0291450662933571e-05,5.62,4.32,8.19259639683878e-07,-7.621019904036075e-06,1.2804877758026123,-0.00634765625,0.01806640625,-0.0005550037422241334,0.046839652759783745,0.0,0.0,-1.247045052572385,0.0,0.002811509695511187,0.0028115095757519377,0.06333510487449387,0.06333515520956183,0.0,-9.187392802480813e-05
1626108415.9334412,0.0006461499721311344,1.295730943814626e-05,5.61,4.33,8.217650133701682e-07,-7.644325705769006e-06,1.2804877758026123,-0.00634765625,0.01806640625,0.022778851006672422,0.025662597524897992,0.5,0.0,-1.2478751893845024,0.0,0.0028115635317628148,0.0028115633040536447,0.06331817716501847,0.06331822025870426,0.0,-8.437057508311728e-05
1626108415.993441,0.39196454427225513,1.5385812933440368e-05,5.61,4.33,0.015032337978482246,-0.11539331823587418,2.865853786468506,-0.00048828125,-0.00244140625,0.044467073467641983,0.023892286946984618,0.5,0.0,-1.249706937997266,0.0,0.002811591868906632,0.0028115901643549672,0.06332077290917482,0.0633208157612699,0.0,-7.584076218027849e-05
1626108416.053441,0.38132907190616583,1.8021187901740854e-05,5.61,4.32,0.08053085952997208,-0.1653466373682022,2.865853786468506,-0.00048828125,-0.00244140625,0.04446707117408414,0.01422469912022973,0.5,0.0,-1.2500264918624593,0.0,0.002811591868741443,0.0028115901643369122,0.06332077290917468,0.06332081576089466,0.0,-7.572491551358253e-05
1626108416.1474411,0.34733523950109957,1.582928420513382e-05,5.61,4.32,0.2748830318450928,0.03307550027966499,2.317073106765747,-0.0048828125,-0.2021484375,0.08819029386635756,0.003203750737266336,0.5,0.0,-1.260870684056193,0.0,0.002811472244315991,0.002811463252233764,0.06331664935758723,0.06331675618574066,0.0,-0.00011191725962283112
1626108416.1734412,0.3385352271389432,4.192113989767769e-06,5.61,4.32,0.2748830318450928,0.03307550027966499,0.6097561120986938,-0.236328125,0.044921875,0.08762601930617502,0.01579187505648389,0.5,0.0,-1.2603196172477518,0.0,0.0038448295220933977,0.0038447984802719736,0.06463300603972987,0.06463321838732602,0.0,-0.000146009003196835
1626108416.251441,-0.08923218793600739,-7.398211102026437e-06,5.58,4.3,0.3834395408630371,0.06599324196577072,0.6097561120986938,-0.236328125,0.044921875,0.09649422391374213,0.015176644733957958,0.5,0.0,-1.2586558292893335,0.0,0.0028115890415791643,0.002811573714712026,0.06330797740534636,0.06330831293122352,0.0,-0.0001512606117401722
1626108416.293441,-0.08302142522439108,-7.517960203647262e-06,5.58,4.3,0.476816326379776,0.08273394405841827,-2.865853786468506,-0.21533203125,-0.32763671875,0.10934497578629226,0.014376052069724409,0.5,0.0,-1.2559730164976832,0.0,0.0028115636547181395,0.0028115465138044767,0.06331308733823603,0.06331356804227521,0.0,-0.00010528631325274984
1626108416.353441,-0.08964091945447335,1.1593157397213687e-05,5.58,4.28,0.527085542678833,0.01655556820333004,-2.865853786468506,-0.21533203125,-0.32763671875,0.10912627673097341,0.018960305104246414,0.5,0.0,-1.2557930797284609,0.0,0.0029242960391718856,0.002924277677838299,0.0634580824583349,0.06345856390695119,0.0,-0.00010495186627378244
1626108416.355441,-0.1093449754754836,1.1699076498966927e-05,5.58,4.28,0.5292508602142334,-6.460169242927805e-05,-0.4268292784690857,0.00634765625,-0.3525390625,0.12624685351671977,0.01790255063193336,0.5,0.0,-1.253900855207047,0.0,0.002811459766477587,0.002811439273904027,0.06332140374114063,0.06332204846082201,0.0,-3.142912944564325e-05
1626108416.4134412,-0.10050160025335211,4.045934717888645e-05,5.58,4.24,0.5231754183769226,0.016493061557412148,-0.4268292784690857,0.00634765625,-0.3525390625,0.14433591503055265,0.0169573011170545,0.5,0.0,-1.2527057530137269,0.0,0.002811431561274314,0.0028114069881323782,0.0633139243304556,0.06331475506025165,0.0,2.8317773443863558e-05
1626108416.4734411,-0.11104712637622918,6.327811362773954e-05,5.58,4.24,0.5053421854972839,0.03290874511003494,-1.2195122241973877,0.1298828125,-0.11865234375,0.15971119684821686,0.012953971575370237,0.5,0.0,-1.2514246931635793,0.0,0.0033803363573049797,0.003380282263008588,0.06404752239237409,0.06404860840346562,0.0,8.035564874760933e-05
1626108416.543441,-0.161324441101234,8.233728296898689e-05,5.57,4.19,0.5053421854972839,0.03290874511003494,-1.2195122241973877,0.1298828125,-0.11865234375,0.17636333841325252,0.012335151388057408,0.5,0.0,-1.250132942609355,0.0,0.002811553283167666,0.0028115078310368396,0.0633170370468252,0.0633184266750246,0.0,0.00012292600171555476
1626108416.593441,-0.15066170638934082,9.792925360120485e-05,5.57,4.19,0.5043177008628845,-0.04939345642924309,0.7317073345184326,0.08740234375,-0.06591796875,0.18899897235079427,0.011526404958024573,0.5,0.0,-1.2506472999589315,0.0,0.002811529195717535,0.0028114741322540376,0.06332498705981361,0.0633267696734731,0.0,0.0001370431840191114
1626108416.6534412,-0.16782468054700156,0.00010218410237476624,5.56,4.15,0.49547842144966125,-0.00012749755114782602,0.7317073345184326,0.08740234375,-0.06591796875,0.1889989721502304,0.01065328238332322,0.5,0.0,-1.2506737207171181,0.0,0.0028115291947632803,0.002811474132147892,0.06332498705981351,0.06332676962649347,0.0,0.00013690569817457156
1626108416.751441,-0.19946186600761753,0.00010181009966454931,5.55,4.12,0.5090378522872925,0.016590198501944542,-2.378048896789551,0.36767578125,0.12451171875,0.20848317551713452,0.022230274406667038,0.5,0.0,-1.249606148997206,0.0,0.002811488774521538,0.002811424822205871,0.06332380325883878,0.06332651897037495,0.0,0.00013333161235964055
1626108416.773441,-0.18424274329621182,9.862487878171672e-05,5.55,4.12,0.499656081199646,0.01647578366100788,-2.012195110321045,0.24365234375,-0.1669921875,0.2165096463439358,0.02086832173501766,0.5,0.0,-1.2488718965271282,0.0,0.0028116200759905068,0.0028115402989999064,0.06332716439010516,0.06333042965206462,0.0,0.00013417415559141007
1626108416.833441,-0.20093498753337197,9.781703769948701e-05,5.54,4.1,0.499656081199646,0.01647578366100788,-2.012195110321045,0.24365234375,-0.1669921875,0.22358647547057217,0.02200229454573262,0.5,0.0,-1.248299459164548,0.0,0.002811668982446524,0.0028115862159784916,0.06331154201156314,0.06331538050672844,0.0,0.00012877403970094269
1626108416.8934412,-0.20445252108178968,9.456960176530532e-05,5.54,4.1,0.501183807849884,0.016523752361536026,-1.9512195587158203,0.2158203125,0.31298828125,0.22950679500377244,0.02063003513944292,0.5,0.0,-1.2479356952569411,0.0,0.002811676806078309,0.002811583045882683,0.06331484598583281,0.06331931745275277,0.0,0.00012222024069461252
1626108416.9534411,-0.2164796684123256,9.090574078958091e-05,5.52,4.05,0.5017949342727661,6.182140350574628e-05,-1.9512195587158203,0.2158203125,0.31298828125,0.22812974577518835,0.01160863412732284,0.5,0.0,-1.2481346065435281,0.0,0.0031514373346999257,0.0031513230070469877,0.06375043130700875,0.06375492109301249,0.0,0.00012036480989350198
1626108416.9594412,-0.22950679448382755,9.01150312244092e-05,5.52,4.05,0.4679218828678131,-4.832709691982018e-06,0.18292683362960815,0.12158203125,0.14013671875,0.22766659799420236,0.004185719123531819,0.5,0.0,-1.2476124313110735,0.0,0.0045575883257777524,0.00455729512653702,0.0655133298941688,0.06551855362429544,0.0,0.00011870021043804515
1626108417.043441,-0.23470782457092468,8.764137666785975e-05,5.5,4.01,0.3929795026779175,-0.016374463215470314,1.585365891456604,-0.06494140625,-0.0341796875,0.2387389365860348,0.004042214856828922,0.0,0.0,-1.2479391341583916,0.0,0.002811664358023709,0.0028115675124705244,0.06329801347191852,0.06330374209780523,0.0,0.0001059335266329036
1626108417.073441,-0.22110219814080756,8.271215382942251e-05,5.5,4.01,0.29099300503730774,-7.93186409282498e-05,1.585365891456604,-0.06494140625,-0.0341796875,0.23573778871901355,0.011891644720798514,0.0,0.0,-1.2480142380108603,0.0,0.003611759453329413,0.003611582144894305,0.06432083764956124,0.06432727228571207,0.0,9.703346963442421e-05
1626108417.1474411,-0.2390849661269956,7.768260021141459e-05,5.49,3.96,0.29099300503730774,-7.93186409282498e-05,1.585365891456604,-0.06494140625,-0.0341796875,0.234664428938742,0.011299090689474992,0.0,0.0,-1.2484970844673815,0.0,0.0028116757430005287,0.002811566912927425,0.06329374411068232,0.06330073381353409,0.0,8.316287710569535e-05
1626108417.1934412,-0.23215103272134313,7.161261897100748e-05,5.49,3.96,0.17762702703475952,0.0164233036339283,-0.4268292784690857,-0.0283203125,0.23779296875,0.2244075275447852,0.010595883056573439,0.0,0.0,-1.2482856945327518,0.0,0.002811612907255671,0.0028115045666360456,0.06330164670695623,0.06330922087646894,0.0,7.693520493431287e-05
1626108417.253441,-0.23325855180991217,6.786734954027939e-05,5.49,3.91,0.09043635427951813,-5.690556645276956e-05,-0.4268292784690857,-0.0283203125,0.23779296875,0.22440752690038845,0.012934332928526726,0.0,0.0,-1.248213806697722,0.0,0.002811612904750746,0.002811504566356085,0.06330164670695608,0.06330922061307484,0.0,7.778651810813375e-05
1626108417.308912,-0.22491918880129214,6.618920502003716e-05,5.48,3.88,6.202658937581873e-07,-5.7699153330759145e-06,0.7317073345184326,-0.00537109375,0.19921875,0.19112844780391539,0.009057027590468157,0.0,0.0,-1.2483668657105857,0.0,0.0027990694520048276,0.0027989882416965374,0.063290786066558,0.06329910084919259,0.0,7.885354292364465e-05
1626108417.3689122,-0.2042826631410995,6.537925173236167e-05,5.48,3.88,6.183748268995259e-07,-5.7523238865542226e-06,0.18292683362960815,-0.00927734375,0.00341796875,0.16973176059796535,0.00849097438900106,0.0,0.0,-1.248284408308119,0.0,0.002808925566625186,0.0028088466757142136,0.06330639911642409,0.06331488221892827,0.0,8.182720815436945e-05
1626108417.4289122,-0.1947801552364357,6.469727902459535e-05,5.46,3.86,6.202658937581873e-07,-5.7699153330759145e-06,0.18292683362960815,-0.00927734375,0.00341796875,0.14916106825621556,0.006379669012708796,0.0,0.0,-1.2483193276177602,0.0,0.00281104740146613,0.00281098441929038,0.06329284678490535,0.06330133334051001,0.0,8.391536955532335e-05
1626108417.488912,-0.16918447889555155,6.374857023431746e-05,5.46,3.86,6.202658937581873e-07,-5.7699153330759145e-06,0.9756097793579102,-0.0185546875,-0.01220703125,0.1301964729298098,0.0059753173405909495,0.0,0.0,-1.2483299958203784,0.0,0.0028114993029004142,0.0028114443868257916,0.06329778788670228,0.06330615034103662,0.0,8.57692826222249e-05
1626108417.548912,-0.1528432375802002,6.273684552501385e-05,5.46,3.85,6.183748268995259e-07,-5.7523238865542226e-06,1.3414634466171265,-0.005859375,-0.00341796875,0.13019647333889486,0.003590063850727507,0.0,0.0,-1.2484036484368322,0.0,0.0028114993010703317,0.0028114443866206623,0.06329778788670222,0.06330615004512405,0.0,8.488610557224402e-05
1626108417.6429121,-0.11328527256495331,6.090022139573192e-05,5.46,3.83,6.183748268995259e-07,-5.7523238865542226e-06,1.3414634466171265,-0.005859375,-0.00341796875,0.09847510592939995,0.0025244101007071054,0.0,0.0,-1.248476220561471,0.0,0.00281145734781975,0.002811423171872562,0.06329817275295117,0.06330592190317896,0.0,8.462733523302464e-05
1626108417.6689122,-0.11241063171853026,5.920869345659999e-05,5.46,3.83,6.202658937581873e-07,-5.7699153330759145e-06,1.3414634466171265,0.0009765625,0.00390625,0.08544996311594551,0.05628253432123739,0.0,0.0,-1.2470771523494866,1.0,0.0028115418444943814,0.002811511082668185,0.06330385889540141,0.0633111759682105,0.0,9.144182672516456e-05
1626108417.728912,-0.10109174334246947,6.01841957777409e-05,5.45,3.83,0.0027360462117940187,0.41208386421203613,1.3414634466171265,0.0009765625,0.00390625,0.07416056735698534,0.08252065652918207,0.0,0.0,-1.2463520691874213,1.0,0.0028115639978515505,0.002811538441136904,0.06329350556018463,0.06330034441886884,0.0,9.713887962248819e-05
1626108417.788912,-0.08619726466790327,6.114592079501231e-05,5.45,3.83,0.0027360462117940187,0.41208386421203613,1.2804877758026123,-0.01806640625,0.0068359375,0.0642383562550922,0.13213233082063008,0.0,0.0,-1.2372890002938106,1.0,0.0028115355440255325,0.0028115134846468806,0.06330040060469981,0.06330674478422903,0.0,9.494921193573094e-05
1626108417.848912,-0.07617296643002056,5.8957486369782066e-05,5.45,3.82,0.01021472830325365,0.3791266679763794,1.2804877758026123,-0.01806640625,0.0068359375,0.06410987420928355,0.1279222457879767,0.0,0.0,-1.2372100681433345,1.0,0.0029242649409438526,0.002924241493997036,0.06344539242938468,0.06345174357115009,0.0,9.359461536051199e-05
1626108417.850912,-0.0642383560149301,5.8490358140799844e-05,5.45,3.82,0.011809212155640125,0.6924458742141724,-26.03658676147461,-0.03369140625,-0.01904296875,0.05535691168354422,0.17401299674398046,0.0,0.0,-1.2193476233499365,1.0,0.002811424387962338,0.0028114059100262595,0.06331041666667936,0.06331626211173899,0.0,6.668434819113028e-05
1626108417.9089122,-0.06596186137334759,4.762006877650684e-05,5.45,3.81,0.007622572593390942,0.8409258723258972,-47.560977935791016,-0.04638671875,-0.025390625,0.04745301935585981,0.25066808575161753,0.0,0.0,-1.1891977366403668,1.0,0.0028113690848564363,0.002811354101857168,0.06330510336256023,0.06331045202944763,0.0,1.962272825442059e-05
1626108417.9689121,-0.0545062617045832,2.952963590023507e-05,5.45,3.81,0.00874723307788372,0.9396970868110657,-47.560977935791016,-0.04638671875,-0.025390625,0.04009447035998318,0.23496408477164252,0.0,0.0,-1.1468404280005664,1.0,0.0033800869399234538,0.0033800694093415115,0.06404177001883564,0.06404666414660486,0.0,-5.808014148632043e-05
1626108418.038912,-0.04049946461994969,1.414012331634456e-06,5.45,3.83,0.008783694356679916,0.9426316022872925,-47.560977935791016,-0.04638671875,-0.025390625,0.03443355425969973,0.22610313704859775,0.0,0.0,-1.1011088294559594,1.0,0.0028113444359653965,0.002811333979779812,0.06331657993419199,0.06332099331769306,0.0,-0.00015136234228388778
1626108418.088912,-0.041437620881357294,-3.149878784780671e-05,5.45,3.83,0.008783694356679916,0.9426316022872925,-53.53658676147461,0.00048828125,0.12451171875,0.02922391769816146,0.21650529097094975,0.0,0.0,-1.0488021589796117,1.0,0.002811215081216268,0.0028112067802853634,0.06333225776953055,0.06333624234791078,0.0,-0.00023827787596217672
1626108418.1489122,-0.035589880794719454,-6.120995974885196e-05,5.48,3.82,0.006590804550796747,0.9231449961662292,-52.80487823486328,0.025390625,-0.09130859375,0.02922391769816146,0.21650529097094975,0.0,0.0,-1.0488021589796117,1.0,0.002811215081216268,0.0028112067802853634,0.06333225776953055,0.06333624234791078,0.0,-0.00023827787596217672
1626108418.246912,-0.024749014356352662,-8.557095685168218e-05,5.5,3.85,0.010881769470870495,0.956302285194397,-54.8780517578125,0.02880859375,0.02685546875,0.02092498427137359,0.20196235009328206,0.0,0.0,-0.9409671872767872,1.0,0.0028109727905055565,0.0028109681544583563,0.06335385448650128,0.0633570664464269,0.0,-0.00037603986244241707
1626108418.268912,-0.024674510058774104,-0.00010583396824250028,5.5,3.85,0.01055149082094431,0.9260358810424805,-54.8780517578125,0.02880859375,0.02685546875,0.017560176518643895,0.19662412183102435,0.0,0.0,-0.8860155441356157,1.0,0.002811068396894242,0.002811065064951614,0.06336976967375854,0.0633726396791677,0.0,-0.00043849781733535823
1626108418.328912,-0.021700444949600495,-0.00012522975284411607,5.38,3.9,0.01089547574520111,0.9561747908592224,-55.60975646972656,0.0966796875,0.00048828125,0.014557422330032765,0.19282987789980754,0.0,0.0,-0.8300550957117803,1.0,0.0028110808694604,0.002811078726369518,0.06336725916252164,0.06336981538794617,0.0,-0.000504071144553417
1626108418.3889122,-0.017894262758732335,-0.00014550980952106346,5.38,3.9,0.012707142159342766,0.9425560832023621,-55.60975646972656,0.0966796875,0.00048828125,0.011920624093936438,0.19024426652773957,0.0,0.0,-0.7731510428336879,1.0,0.002811119469170101,0.0028111182878554544,0.06336330116275334,0.06336557148447994,0.0,-0.0005645716613814385
1626108418.4489121,-0.014537992917717268,-0.00016359904515775975,5.41,3.88,0.012707142159342766,0.9425560832023621,-53.23170852661133,0.01171875,-0.0302734375,0.011920624093936438,0.19024426652773957,0.0,0.0,-0.7731510428336879,1.0,0.002811119469170101,0.0028111182878554544,0.06336330116275334,0.06336557148447994,0.0,-0.0005645716613814385
1626108418.538912,-0.009576284051803972,-0.0001794635655332412,5.42,3.88,0.010565703734755516,0.9259036779403687,-51.03658676147461,-0.0771484375,0.0166015625,0.007475094705173421,0.18760447809421943,0.0,0.0,-0.6600349886396051,1.0,0.0028110460502429706,0.00281104625955442,0.06337545768979685,0.06337723497226284,0.0,-0.000672718776400082
1626108418.568912,-0.00985215000059022,-0.00019427019680694685,5.42,3.88,0.011877774260938168,0.8709715604782104,-51.03658676147461,-0.0771484375,0.0166015625,0.005631411889146379,0.1870243232610484,0.0,0.0,-0.6051038078982455,1.0,0.002811095757951733,0.002811096424614466,0.06339107363655384,0.06339264011822629,0.0,-0.0007157583585458984
1626108418.6289122,-0.007988054922190391,-0.0002052252798648983,5.42,3.86,0.008398553356528282,0.9094903469085693,-50.853660583496094,0.0283203125,0.13525390625,0.004048749565560176,0.18721610391902077,0.0,0.0,-0.5505580820135686,1.0,0.0028110914089739345,0.0028110924148771767,0.06339441874391588,0.06339579547337935,0.0,-0.0007470158117232298
1626108418.6889122,-0.006010965357040605,-0.00021177518362890466,5.42,3.86,0.004064222332090139,0.8711050748825073,-50.853660583496094,0.0283203125,0.13525390625,0.002805290351529625,0.18778200472414613,0.0,0.0,-0.4964556546176247,1.0,0.002811079867268937,0.002811081093914032,0.0634114192847726,0.06341262625600075,0.0,-0.0007568133802779295
1626108418.748912,-0.00441674663216256,-0.00021041500553827425,5.43,3.84,0.004064222332090139,0.8711050748825073,-44.878047943115234,0.015625,0.11669921875,0.002805290351529625,0.18778200472414613,0.0,0.0,-0.4964556546176247,1.0,0.002811079867268937,0.002811081093914032,0.0634114192847726,0.06341262625600075,0.0,-0.0007568133802779295
1626108418.808912,-0.003118788309234383,-0.00020585857589177405,5.44,3.82,0.0006455437396652997,-0.11538892239332199,8.963415145874023,-0.02294921875,-0.02099609375,0.0010408003730091953,0.18760584283934298,0.0,0.0,-0.3986650995728617,1.0,0.0028109937810627717,0.0028109952176236545,0.06343173571990009,0.06343265557894738,0.0,-0.000738564213731196
1626108418.8689122,-0.001944556852531768,-0.00019427615390369793,5.44,3.81,0.0021634406875818968,-0.016598887741565704,8.963415145874023,-0.02294921875,-0.02099609375,0.0005558015113706231,0.2628806626993819,0.0,0.0,-0.3745287077634118,1.0,0.0031508849660644715,0.0031508867590785334,0.06387825207403966,0.06387905180911244,0.0,-0.0006987201361071518
1626108418.9349122,-0.0005590528736661009,-0.00017580599666351703,5.44,3.81,5.394733193497814e-08,-5.018356432628934e-07,1.2804877758026123,-0.0068359375,0.02001953125,0.00041207889206304916,0.2479515354072855,0.0,0.0,-0.36929970822951247,1.0,0.002811375985327634,0.002811377329985877,0.063443112996622,0.06344380584221615,0.0,-0.0006530527959262833
1626108418.988912,-0.0005975861922642351,-0.00015552035138582455,5.44,3.81,5.4112309300080597e-08,-5.033703018852975e-07,1.2804877758026123,-0.0068359375,0.02001953125,0.000354331905508551,0.2318564103321449,0.0,0.0,-0.3673393976697589,1.0,0.002811497092442424,0.0028114983079403372,0.0634470725484174,0.06344767111536005,0.0,-0.0006125156014384828
1626108419.048912,-0.00042422953187369627,-0.0001371729380164869,5.45,3.8,5.4112309300080597e-08,-5.033703018852975e-07,1.1585365533828735,-0.001953125,0.00341796875,0.0003543180319475548,0.21653694422937092,0.0,0.0,-0.3678943968170839,1.0,0.0028114970924416178,0.0028114983079376016,0.06344707254841693,0.06344767111420271,0.0,-0.0006132017878605795
1626108419.1429121,-0.0003059906181556372,-0.00012079534657978432,5.45,3.8,5.4112309300080597e-08,-5.033703018852975e-07,1.3414634466171265,-0.0068359375,0.00537109375,0.0002650895659928996,0.17471595817187235,0.0,0.0,-0.3681828593154609,1.0,0.0028116483636118263,0.002811649299565471,0.06342667548839889,0.0634271177555108,0.0,-0.0005423855577622226
1626108419.1689122,-0.00030394192243865455,-0.00010549514690193749,5.45,3.8,5.394733193497814e-08,-5.018356432628934e-07,1.3414634466171265,-0.0068359375,0.00537109375,0.0002256253710518783,0.1471274197982605,0.0,0.0,-0.3664743186876528,1.0,0.0038452184384697493,0.003845219875698723,0.06473326927946099,0.06473364616383252,0.0,-0.0005119399639129475
1626108419.246912,-0.0002297783972770852,-9.130641290311495e-05,5.45,3.8,5.4112309300080597e-08,-5.033703018852975e-07,1.2804877758026123,-0.01123046875,0.0,0.00019943194370060073,0.1396944367622947,0.0,0.0,-0.3696361733030514,1.0,0.002811792818558391,0.0028117935103094656,0.06339706457641528,0.06339738690147995,0.0,-0.0004794727878349249
1626108419.288912,-0.00023176901352821321,-7.7991320142779e-05,5.45,3.81,5.394733193497814e-08,-5.018356432628934e-07,1.2804877758026123,-0.01123046875,0.0,0.00017304536006962752,0.13002250184452252,0.0,0.0,-0.3701655575644554,1.0,0.0028117517919850543,0.0028117523813947116,0.06339253516023838,0.06339280889975707,0.0,-0.0004502144058630102
1626108419.348912,-0.00020474297535525782,-6.55190121167306e-05,5.45,3.81,5.394733193497814e-08,-5.018356432628934e-07,1.2804877758026123,-0.0078125,0.00927734375,0.000172686809909289,0.11885708197106856,0.0,0.0,-0.37034654630059455,1.0,0.0029244994190790095,0.002924500052961611,0.06353759525239987,0.06353786881650564,0.0,-0.00045053777754696636
1626108419.350912,-0.0001730489008548585,-6.553941527948102e-05,5.46,3.81,5.394733193497814e-08,-5.018356432628934e-07,1.2804877758026123,-0.0078125,0.00927734375,0.00014619735875751286,0.04428589615105629,0.0,0.0,-0.37220433567632355,1.0,0.004317888699320996,0.004317889794005949,0.06529447751420102,0.065294706901004,0.0,-0.0004248336633424446
1626108419.4349122,-0.00015019377340428727,-5.3923265982419695e-05,5.46,3.81,5.394733193497814e-08,-5.018356432628934e-07,1.3414634466171265,-0.00927734375,0.00830078125,0.00013033587596047799,0.04255082513028267,0.0,0.0,-0.3740604297790839,1.0,0.0028116752434490092,0.0028116756666629232,0.06336939650863155,0.0633695916960319,0.0,-0.0003967062094607064
1626108419.4689121,-0.00015019972851293382,-4.294053953424964e-05,5.47,3.8,5.394733193497814e-08,-5.018356432628934e-07,1.3414634466171265,-0.00927734375,0.00830078125,0.00011191358249844924,0.0238735935279254,0.0,0.0,-0.37473475725672295,1.0,0.0033805775242698073,0.0033805780226133985,0.06409363967954322,0.06409380278464456,0.0,-0.0003717501733259693
1626108419.538912,-0.000113062979405169,-3.266331746504983e-05,5.47,3.8,5.394733193497814e-08,-5.018356432628934e-07,1.402438998222351,-0.0048828125,0.001953125,9.808449828431198e-05,0.022583440783684215,0.0,0.0,-0.37530348854262,1.0,0.002811662459602742,0.0028116627581452327,0.06335626991223539,0.06335640704338542,0.0,-0.0003471588776343888
1626108419.588912,-0.0001149432985240078,-2.3038044766730076e-05,5.46,3.8,5.4112309300080597e-08,-5.033703018852975e-07,1.402438998222351,-0.0048828125,0.001953125,8.505554560451089e-05,0.02112559144892016,0.0,0.0,-0.3754916303751816,1.0,0.0028115862363589273,0.002811586485971635,0.06335906862463137,0.06335918298386632,0.0,-0.00032406214666454104
1626108419.6489122,-0.00010071691926882914,-1.4040583653569295e-05,5.46,3.8,5.394733193497814e-08,-5.018356432628934e-07,1.402438998222351,-0.00537109375,0.00927734375,8.504917597926812e-05,0.013673004384268208,0.0,0.0,-0.37573420687818654,1.0,0.0028115862363588344,0.0028115864859715196,0.06335906862462963,0.06335918298380837,0.0,-0.00032409884356081304
1626108419.746912,-7.374422375076351e-05,-5.638949820307787e-06,5.46,3.8,5.4112309300080597e-08,-5.033703018852975e-07,1.2804877758026123,-0.001953125,0.0078125,6.349264214939554e-05,0.008221811366923341,0.0,0.0,-0.3761196004586837,1.0,0.0028546228104926134,0.0028546229870440028,0.0633971109818713,0.0633971891166009,0.0,-0.00028010996530770325
1626108419.772471,-7.300854612379757e-05,2.5567737091924222e-06,5.45,3.8,5.394733193497814e-08,-5.018356432628934e-07,1.2804877758026123,-0.001953125,0.0078125,5.499266018182169e-05,0.0076972378884051645,0.0,0.0,-0.3762027468528549,-1.0,0.0028209050175844195,0.0028209051604386713,0.06335687874067192,0.06335694339312581,0.0,-0.00025998641406850163
1626108419.832471,-6.521955160210626e-05,9.891969275538232e-06,5.45,3.8,0.002154136076569557,-0.016534315422177315,1.402438998222351,-0.00439453125,0.0068359375,4.768674536911576e-05,-0.040909470408136875,0.0,0.0,-0.3771251190419733,-1.0,0.0028136090980502514,0.002813609215639753,0.06333177401607594,0.063331827593168,0.0,-0.00024094338887000518
1626108419.892471,-5.5276244839672913e-05,1.66514943268803e-05,5.46,3.79,0.006021449342370033,-0.5276684761047363,1.402438998222351,-0.00439453125,0.0068359375,6.826798758819737e-05,-0.059081490481767175,0.0,0.0,-0.3780787245914772,-1.0,0.002812065855550846,0.002812065952613817,0.06331218378066016,0.0633122283241686,0.0,-0.00022283780325764685
1626108419.952471,-3.6936478888401035e-05,2.29106530596164e-05,5.46,3.79,0.009978254325687885,-0.5292187333106995,-0.7317073345184326,0.06689453125,0.2236328125,0.00015406089762528503,-0.11945093871849238,0.0,0.0,-0.394353807341896,-1.0,0.004557400013830348,0.004557400203608762,0.0655120207055679,0.06551205754169935,0.0,-0.00020644763730096993
1626108420.042471,-0.00015881582923671082,2.8129352976984733e-05,5.45,3.8,0.009939952753484249,-0.5275278687477112,28.109756469726562,0.0419921875,0.04345703125,0.0008912692222802723,-0.13443832846664944,0.0,0.0,-0.4440007121808965,-1.0,0.0036114416310209585,0.003611441714589803,0.06432210607837413,0.06432213312637725,0.0,-0.0002019235063794029
1626108420.072471,-4.0244595856472144e-05,3.0147755161386224e-05,5.47,3.8,0.010075459256768227,-0.7110272645950317,28.109756469726562,0.0419921875,0.04345703125,0.0013720413785137226,-0.13015087303652928,0.0,0.0,-0.47556119366001487,-1.0,0.0028114746504799507,0.002811474694291237,0.0632973632977414,0.0632973869487206,0.0,-0.00020869909627624445
1626108420.146471,-0.0009039241045731474,2.884878648109508e-05,5.47,3.8,0.009746327064931393,-0.8545987010002136,45.4878044128418,-0.01220703125,0.03759765625,0.0018629101180677172,-0.1254842489922446,0.0,0.0,-0.5175173026361503,-1.0,0.0028113694387800767,0.002811369475100564,0.06330873478182023,0.06330875599395296,0.0,-0.00022390570976023674
1626108420.192471,-0.0006997144026116783,2.6035787789044323e-05,5.48,3.79,0.010905023664236069,-0.9591687917709351,45.4878044128418,-0.01220703125,0.03759765625,0.0018629101180677172,-0.1254842489922446,0.0,0.0,-0.5175173026361503,-1.0,0.0028113694387800767,0.002811369475100564,0.06330873478182023,0.06330875599395296,0.0,-0.00022390570976023674
1626108420.252471,-0.001161234057545583,2.007985474200801e-05,5.48,3.79,0.013003729283809662,-0.9696991443634033,56.40243911743164,0.0517578125,0.01220703125,0.0022731600252992247,-0.12252938788565738,0.0,0.0,-0.566631089527644,-1.0,0.002811166130174723,0.00281116616041547,0.06332773433075509,0.06332775389738136,0.0,-0.0002410436792449552
1626108420.312471,-0.0016707900724077312,1.3546888724670017e-05,5.48,3.79,0.015222148038446903,-0.9923062324523926,58.78049087524414,-0.03515625,-0.03076171875,0.003083614830848541,-0.12074335606794764,0.0,0.0,-0.6788180156890388,-1.0,0.0031506083610995097,0.003150608383758589,0.06377994951827692,0.06377996789084205,0.0,-0.0002996385643834254
1626108420.3724709,-0.001971079953150991,3.611801749617742e-06,5.47,3.82,0.010896218940615654,-0.9561678767204285,58.78049087524414,-0.03515625,-0.03076171875,0.0035595387381314376,-0.12258880321551753,0.0,0.0,-0.7357288111377509,-1.0,0.002810997661610192,0.0028109976744134903,0.06335885913345307,0.06335887731974754,0.0,-0.00033995870370751274
1626108420.438471,-0.003102228331009278,-7.819511778093761e-06,5.47,3.82,0.011304434388875961,-0.9921773076057434,56.95122146606445,-0.02783203125,-0.001953125,0.003935258829374384,-0.1245398489501841,0.0,0.0,-0.7938588869265344,0.0,0.002810904462752225,0.0028109044682461458,0.06338218596254083,0.06338220456456072,0.0,-0.0003735870342814466
1626108420.492471,-0.00284745879163151,-2.2156252911989653e-05,5.47,3.84,0.008768610656261444,-0.9426208138465881,56.95122146606445,-0.02783203125,-0.001953125,0.003935258829374384,-0.1245398489501841,0.0,0.0,-0.7938588869265344,0.0,0.002810904462752225,0.0028109044682461458,0.06338218596254083,0.06338220456456072,0.0,-0.0003735870342814466
1626108420.552471,-0.003342729183867167,-3.373376309877333e-05,5.47,3.84,0.00425347313284874,-0.5457485914230347,54.39024353027344,0.03173828125,-0.04248046875,0.004072611840087059,-0.1227612813573029,0.0,0.0,-0.8554789796365354,0.0,0.004796787734044816,0.004796787698790973,0.06590385196351924,0.06590387314864928,0.0,-0.0003992474847463648
1626108420.646471,-0.004215954976723214,-4.165638942322387e-05,5.49,3.77,9.414726775958115e-08,-8.757885439081292e-07,-0.12195122241973877,-0.025390625,-0.04345703125,0.003966458462102375,-0.10612554065278076,0.0,0.0,-0.9287418348598752,0.0,0.0038440465834982673,0.0038440465357643056,0.06473330941004352,0.06473333188226517,0.0,-0.0003691382830477185
1626108420.672471,-0.003957825509706048,-3.994639693703251e-05,5.48,3.73,9.414726775958115e-08,-8.757885439081292e-07,-0.12195122241973877,-0.025390625,-0.04345703125,0.0036459810929496475,-0.1025248936754129,0.0,0.0,-0.9369891059440056,0.0,0.0028113367817986182,0.002811336754233974,0.06341026739108321,0.06341028993262836,0.0,-0.00033796945939386987
1626108420.7504709,-0.004039158226515232,-2.9010488156365098e-05,5.48,3.73,9.386022981061615e-08,-8.731184379939805e-07,0.9146341681480408,0.0107421875,0.01318359375,0.003227485268263097,-0.09601667204331704,0.0,0.0,-0.9412119240482208,0.0,0.002811520782943832,0.00281152075409307,0.06341230123801529,0.06341232498863578,0.0,-0.00031164256724212545
1626108420.792471,-0.0040229221184810045,-1.7180194275814198e-05,5.5,3.69,9.386022981061615e-08,-8.731184379939805e-07,1.1585365533828735,0.01513671875,0.00927734375,0.003221059425273346,-0.019739647346017054,0.0,0.0,-0.9381423320332447,0.0,0.002924258464383806,0.00292425843352418,0.06355740494579455,0.06355742883076052,0.0,-0.0003114402963637911
1626108420.8524709,-0.003719396886409402,-7.155384191523225e-06,5.5,3.69,9.386022981061615e-08,-8.731184379939805e-07,1.1585365533828735,0.01513671875,0.00927734375,0.0027560409301570924,-0.008512919091373994,0.0,0.0,-0.9395809897795893,0.0,0.004317799066304436,0.004317799001768985,0.06531704979460391,0.06531707656673875,0.0,-0.0002880536652768978
1626108420.854471,-0.0032274786945147263,-7.099024084151768e-06,5.5,3.66,9.386022981061615e-08,-8.731184379939805e-07,1.1585365533828735,0.01513671875,0.00927734375,0.0024694821958306727,-0.00822853119270576,0.0,0.0,-0.9399524594333708,0.0,0.0028116657518564058,0.0028116657259324644,0.06339141374177563,0.06339143974183872,0.0,-0.0002668364690186212
1626108420.938471,-0.002829605817720687,1.6311588810875355e-06,5.5,3.66,9.386022981061615e-08,-8.731184379939805e-07,1.3414634466171265,-0.0078125,0.005859375,0.0021259001750031405,-0.003990264829968957,0.0,0.0,-0.9401212387292429,0.0,0.003380619779309158,0.003380619742817674,0.06411490943465545,0.0641149371715984,0.0,-0.00024692274943997184
1626108420.972471,-0.002826758734654154,9.410552730697942e-06,5.48,3.64,9.386022981061615e-08,-8.731184379939805e-07,1.3414634466171265,-0.0078125,0.005859375,0.0018653285267605422,-0.0037824687242768626,0.0,0.0,-0.9401491719235816,0.0,0.0028117003331001433,0.0028117003082928005,0.06337599850990638,0.06337602641052968,0.0,-0.00022848807496265105
1626108421.042471,-0.0021473717859744786,1.6486097667587726e-05,5.48,3.64,9.414726775958115e-08,-8.757885439081292e-07,1.402438998222351,-0.001953125,0.00146484375,0.0016182676885010525,-0.003543064086624362,0.0,0.0,-0.9401716781632867,0.0,0.002811627985858429,0.0028116279615765156,0.0633773581745981,0.06337738688073248,0.0,-0.00021090564445166087
1626108421.092471,-0.0021825391362177023,2.297977779320745e-05,5.48,3.62,9.386022981061615e-08,-8.731184379939805e-07,1.402438998222351,-0.001953125,0.00146484375,0.0016182687382143251,-0.0013973959647029953,0.0,0.0,-0.9401036171363804,0.0,0.002811627985858111,0.0028116279615764176,0.06337735817459757,0.0633773868806898,0.0,-0.0002108962110246956
1626108421.152471,-0.001915010461357424,2.8962987524280456e-05,5.48,3.62,9.414726775958115e-08,-8.757885439081292e-07,1.2804877758026123,0.00634765625,0.0087890625,0.0013500186989855558,-0.00011172770989450503,0.0,0.0,-0.9400735145202388,0.0,0.005042888810799097,0.005042888732796715,0.06617630326160366,0.06617633561873636,0.0,-0.00019290479154991964
1626108421.2504709,-0.0014033450156321792,3.4484716580212774e-05,5.48,3.61,9.414726775958115e-08,-8.757885439081292e-07,1.2195122241973877,0.001953125,0.00341796875,0.0010553839423162127,-0.00010059967811739942,0.0,0.0,-0.9400363565315412,0.0,0.002811633118693204,0.00281163309507615,0.06336439786216569,0.06336442836251671,0.0,-0.00016331226441258795
1626108421.272471,-0.001387715594322501,3.956553254884228e-05,5.48,3.6,9.414726775958115e-08,-8.757885439081292e-07,1.402438998222351,-0.00537109375,0.00830078125,0.0009154537096870009,0.0007597244529502468,0.0,0.0,-0.9399986940696565,0.0,0.0028116669523283993,0.002811666928861106,0.06334475462176267,0.06334478551464796,0.0,-0.00014902494756505893
1626108421.332471,-0.00125028578694277,4.423348827037641e-05,5.48,3.6,9.386022981061615e-08,-8.731184379939805e-07,1.402438998222351,-0.00537109375,0.00830078125,0.000793887880740217,0.0010915261197567605,0.0,0.0,-0.9399808513627298,0.0,0.002811695413184809,0.002811695389806291,0.0633245197386447,0.06332455092842462,0.0,-0.00013548493567741384
1626108421.392471,-0.0010605796187073459,4.851195390300915e-05,5.49,3.61,9.414726775958115e-08,-8.757885439081292e-07,1.402438998222351,-0.00537109375,0.00830078125,0.000793887880740217,0.0010915261197567605,0.0,0.0,-0.9399808513627298,0.0,0.002811695413184809,0.002811695389806291,0.0633245197386447,0.06332455092842462,0.0,-0.00013548493567741384
1626108421.452471,-0.000897991238291255,5.2419516321584135e-05,5.49,3.61,9.386022981061615e-08,-8.731184379939805e-07,1.3414634466171265,-0.00830078125,-0.00439453125,0.0006674417716981284,0.001409803069735016,0.0,0.0,-0.9399263812912764,0.0,0.004557426835067792,0.004557426772865441,0.06552327738092603,0.06552331103116807,0.0,-0.0001210057626786188
1626108421.542471,-0.0006880841049918447,5.5976069207537956e-05,5.49,3.61,0.007080826908349991,0.06586815416812897,1.4634146690368652,0.00439453125,0.005859375,0.029405790638093527,0.0015638624512973299,0.5,0.0,-0.9399332374105006,0.0,0.0036115947076420804,0.0036115945369992394,0.06432977717266761,0.06432980973883308,0.0,-9.822253234916487e-05
1626108421.572471,-0.0006859784483184266,5.92005988233703e-05,5.48,3.6,0.007080826908349991,0.06586815416812897,1.4634146690368652,0.00439453125,0.005859375,0.04526946467984891,0.0015226854861250568,0.5,0.0,-0.9392096656423731,0.0,0.0028115739149041875,0.0028115732659039364,0.06330200163998234,0.06330203739704916,0.0,-8.866436240842178e-05
1626108421.646471,0.3807396328873793,6.216858535414957e-05,5.48,3.6,0.07029468566179276,0.21487943828105927,-4.329268455505371,0.0146484375,-0.01220703125,0.0659700641490414,0.001819602390787442,0.5,0.0,-0.9327523703720242,0.0,0.002811513677183279,0.0028115117407248634,0.06330934195567664,0.06330939992812104,0.0,-7.329282482801888e-05
1626108421.692471,0.3759414969421457,6.479675363135745e-05,5.48,3.6,0.15066535770893097,-0.016430262476205826,0.6707317233085632,-0.11328125,-0.0791015625,0.06597006708678098,0.012307413367719308,0.5,0.0,-0.932426956404973,0.0,0.0028115136770770904,0.0028115117406685547,0.06330934195567647,0.0633093999279735,0.0,-7.338188954366894e-05
1626108421.752471,0.3633701575528482,6.916382756772774e-05,5.48,3.6,0.25598543882369995,-0.032997578382492065,0.6707317233085632,-0.11328125,-0.0791015625,0.09514338384740374,0.015957032655223167,0.5,0.0,-0.9279452689700839,0.0,0.004079880010051879,0.004079870386472245,0.06492935005571916,0.0649294647420774,0.0,-2.9004357766483938e-05
1626108421.834471,0.3296878196586609,8.314222663330538e-05,5.47,3.66,0.46262305974960327,-0.049749620258808136,3.2926828861236572,-0.083984375,-0.2783203125,0.11509177656497516,0.006992832008347304,0.5,0.0,-0.9278864146017747,0.0,0.0031512770051115462,0.003151265809135804,0.06375253801643511,0.06375292396485284,0.0,4.2377587473639936e-05
1626108421.8724709,0.3256899768516416,9.72858209017803e-05,5.47,3.72,0.5160839557647705,-0.04932347685098648,3.2926828861236572,-0.083984375,-0.2783203125,0.12519034392869186,0.006539454721226049,0.5,0.0,-0.9291730113579498,0.0,0.0028115034723774843,0.002811494633562843,0.06331882229444587,0.06331941779237639,0.0,3.6757566313696906e-05
1626108421.938471,-0.11578650297017765,0.0001040214705231637,5.47,3.72,0.5160839557647705,-0.04932347685098648,2.378048896789551,-0.23779296875,-0.16552734375,0.139086086707145,0.006033811807372856,0.5,0.0,-0.9306587514413331,0.0,0.0028114435143717937,0.0028114337962939174,0.0633289196417696,0.06332975052435744,0.0,-1.5275412415050385e-06
1626108421.992471,-0.1090958591577066,9.831274980461365e-05,5.43,3.68,0.5351688861846924,-0.033064104616642,1.3414634466171265,0.2587890625,-0.03515625,0.13908608666863428,-0.0026702216603423194,0.5,0.0,-0.9309267252331187,0.0,0.002811443514066419,0.0028114337961236153,0.0633289196417696,0.0633297505010969,0.0,-2.4480799094227077e-06
1626108422.052471,-0.11731506979813539,8.040030016855986e-05,5.43,3.68,0.5296083092689514,-0.0328989215195179,1.3414634466171265,0.2587890625,-0.03515625,0.14963863721749024,-0.01423183324549826,0.5,0.0,-0.9336892871711675,0.0,0.004798725514930073,0.004798679403122366,0.06583583948972495,0.0658369584836822,0.0,-6.864585465607623e-05
1626108422.146471,-0.15490544562221586,5.186423712593393e-05,5.4,3.78,0.49572208523750305,0.016342276707291603,3.841463565826416,0.0263671875,-0.3125,0.18136786844116956,-0.011298735615626427,0.5,0.0,-0.9364703552121886,0.0,0.0038448966085529532,0.0038448574654852976,0.0646424142735096,0.06464416698652521,0.0,-0.00018118220502664977
1626108422.172471,-0.14045250435954293,2.7160163130130996e-05,5.31,3.76,0.4976303279399872,-0.016532020643353462,2.804877996444702,-0.2109375,-0.38134765625,0.19711665176890214,-0.010851756679574906,0.5,0.0,-0.9366124192978122,0.0,0.002766849362648269,0.002766828423842999,0.0632647012326434,0.06326681898421144,0.0,-0.00020741260200138136
1626108422.2504709,-0.18469230962156918,7.244408672637906e-06,5.31,3.76,0.4976303279399872,-0.016532020643353462,2.804877996444702,-0.2109375,-0.38134765625,0.20711284568776409,0.00146156111562486,0.5,0.0,-0.9367220121913814,0.0,0.0028019354985810924,0.0028019113552118606,0.06328695252074394,0.0632895226297172,0.0,-0.00021129641686071327
1626108422.288893,-0.17303233332888285,-3.2956446631109606e-06,5.32,3.75,0.5057089924812317,-0.00014058682427275926,0.3658536672592163,-0.2578125,0.2744140625,0.20711284568776409,0.00146156111562486,0.5,0.0,-0.9367220121913814,0.0,0.0028019354985810924,0.0028019113552118606,0.06328695252074394,0.0632895226297172,0.0,-0.00021129641686071327
1626108422.348893,-0.1808895427224636,-5.5682157721953795e-06,5.32,3.75,0.49786072969436646,-7.394744170596823e-05,0.3658536672592163,-0.2578125,0.2744140625,0.20998163655831115,0.002230514530165202,0.5,0.0,-0.9371632894689658,0.0,0.004315744428524033,0.004315667155983849,0.06519870324152793,0.06520187808637709,0.0,-0.00021863864257670688
1626108422.4348931,-0.2155869008165187,-8.920624177420515e-06,5.32,3.73,0.4512169659137726,-0.03289543464779854,0.12195122241973877,0.17724609375,-0.12890625,0.22658069436530873,0.0041117700420489015,0.0,0.0,-0.9372738423105481,0.0,0.0033803762130958396,0.0033803267456499497,0.06401525232110898,0.06401960661430715,0.0,-0.00020137981123707476
1626108422.468893,-0.20260337423536937,-7.194835550569029e-06,5.22,3.71,0.3706614673137665,-0.016562022268772125,-0.9146341681480408,0.0712890625,-0.09228515625,0.23314134884602344,0.0038806166158509453,0.0,0.0,-0.9376201876667257,0.0,0.002811565613939143,0.002811529060405415,0.0632867399054746,0.063291711223854,0.0,-0.00019078374713258698
1626108422.538893,-0.2288693853099524,-3.88018500026233e-06,5.22,3.71,0.3706614673137665,-0.016562022268772125,-0.9146341681480408,0.0712890625,-0.09228515625,0.23326742202764372,0.0035912525310348112,0.0,0.0,-0.9383182264516048,0.0,0.0028115112176906156,0.002811472903860018,0.0632977923194061,0.06330342356203551,0.0,-0.00018711195525025287
1626108422.588893,-0.22000813526471358,-6.163582271519754e-07,5.22,3.69,0.2748524844646454,0.03294245898723602,1.8902438879013062,0.0107421875,0.23974609375,0.23326742249474133,0.004961353723567697,0.0,0.0,-0.93827572292168,0.0,0.0028115112158445185,0.002811472902869772,0.06329779231940587,0.06330342334686008,0.0,-0.0001866718298394012
1626108422.648893,-0.2279484507435069,2.0645030418640886e-07,5.22,3.69,0.16642656922340393,0.0164786484092474,1.8902438879013062,0.0107421875,0.23974609375,0.21991008838662257,-0.0011394501870518018,0.0,0.0,-0.9385497942661686,0.0,0.005042622842179435,0.005042485398274532,0.0661049429016348,0.06611136202812436,0.0,-0.0001838398439177687
1626108422.746893,-0.2285967364348243,1.1219857424762421e-06,5.22,3.67,0.007847181521356106,-7.621097756782547e-05,1.3414634466171265,-0.01416015625,0.14306640625,0.2022593338625149,-0.0034978728314171608,0.0,0.0,-0.9387854249061675,0.0,0.0029242950326438285,0.0029242566759869154,0.06345455215159629,0.06346179757062041,0.0,-0.0001673357277248471
1626108422.768893,-0.2186691097918113,3.737995413654153e-06,5.22,3.66,5.127452595843351e-07,-4.7697235459054355e-06,-0.12195122241973877,-0.01220703125,0.01904296875,0.1829121072429347,-0.0032963199257648942,0.0,0.0,-0.9390071474177972,0.0,0.002811482516295669,0.002811450610607739,0.06331857111339777,0.06332616391601527,0.0,-0.0001556181432781066
1626108422.830893,-0.20266468325054102,7.0958777391762954e-06,5.22,3.66,5.111820087222441e-07,-4.755181635118788e-06,-0.12195122241973877,-0.01220703125,0.01904296875,0.1620695858730828,-0.0020407859431712263,0.0,0.0,-0.9390674956983005,0.0,0.002811446660216421,0.0028114216244100815,0.06331156333147345,0.06331933321502299,0.0,-0.00014396567275047723
1626108422.8888931,-0.20506078573834433,1.1456982714113928e-05,5.22,3.65,5.111820087222441e-07,-4.755181635118788e-06,1.2804877758026123,-0.00439453125,-0.00732421875,0.1620695858730828,-0.0020407859431712263,0.0,0.0,-0.9390674956983005,0.0,0.002811446660216421,0.0028114216244100815,0.06331156333147345,0.06331933321502299,0.0,-0.00014396567275047723
1626108422.948893,-0.17816452202667685,1.5721911459555567e-05,5.22,3.65,5.127452595843351e-07,-4.7697235459054355e-06,1.2804877758026123,-0.00439453125,-0.00732421875,0.13783935456238827,0.0006755020006956319,0.0,0.0,-0.9390185116313762,0.0,0.004557230361966299,0.004557175147207048,0.06551602149797348,0.06552396938241886,0.0,-0.00013204070362933415
1626108423.038893,-0.14210242218485414,1.975970655587002e-05,5.23,3.65,5.127452595843351e-07,-4.7697235459054355e-06,1.0365853309631348,-0.01220703125,0.01220703125,0.10636676311398392,0.0013423544685303374,0.0,0.0,-0.9389689483992172,0.0,0.003611596327555631,0.0036115728983109937,0.06432644602028158,0.06433394311092228,0.0,-0.00011154823834145178
1626108423.068893,-0.14138398288250872,2.3352609520974796e-05,5.22,3.64,5.096283075545216e-07,-4.740728400065564e-06,1.3414634466171265,-0.00048828125,0.00927734375,0.09373109895224005,0.0012773636248336712,0.0,0.0,-0.9389780955708547,0.0,0.0028115793523635565,0.0028115666566279176,0.06329923400798443,0.06330633688173208,0.0,-0.00010205139866969997
1626108423.142893,-0.10787706080394416,2.6820870754896543e-05,5.22,3.64,5.127452595843351e-07,-4.7697235459054355e-06,1.3414634466171265,-0.00048828125,0.00927734375,0.08132441244233846,0.0011963902668272748,0.0,0.0,-0.9389763908501673,0.0,0.002811519857983927,0.0028115091756502164,0.06330678412044632,0.0633134952314055,0.0,-9.263250421831177e-05
1626108423.188893,-0.10920929125470963,3.0016000549283043e-05,5.22,3.63,5.127452595843351e-07,-4.7697235459054355e-06,1.4634146690368652,-0.00830078125,-0.00048828125,0.08132441259851247,0.001733556175810167,0.5,0.0,-0.9389596603093194,0.0,0.0028115198573555908,0.0028115091753151016,0.06330678412044614,0.06331349503795605,0.0,-9.24682204348386e-05
1626108423.248893,-0.09622549362951263,3.295001045222068e-05,5.22,3.63,5.096283075545216e-07,-4.740728400065564e-06,1.4634146690368652,-0.00830078125,-0.00048828125,0.10216667936179977,0.00175067743208163,0.5,0.0,-0.9389144551220152,0.0,0.004079891867431786,0.004079871455446384,0.06492672521826041,0.06493308085810572,0.0,-8.265547081572999e-05
1626108423.330893,0.32396852181861163,3.57099101653216e-05,5.17,3.64,0.09800679236650467,-0.00014245552301872522,1.402438998222351,-0.0146484375,-0.14697265625,0.12173661834929456,0.001859632417004348,0.5,0.0,-0.9383788397248938,0.0,0.003151280598398523,0.0031512642623819052,0.0637499973716939,0.06375551787768795,0.0,-6.816904237600455e-05
1626108423.368893,0.3157990874909038,3.820251672626868e-05,5.17,3.64,0.20664294064044952,-0.016400063410401344,1.5243902206420898,0.0859375,-0.30126953125,0.11046394431139273,0.0017569122378577543,0.0,0.0,-0.9383337001405145,0.0,0.0028115104763163125,0.0028114954162409772,0.06331635200600447,0.06332157944499352,0.0,-6.106132423157695e-05
1626108423.4348931,0.30407025280576316,3.982922176780601e-05,5.17,3.64,0.23699674010276794,0.0163409486413002,1.5243902206420898,0.0859375,-0.30126953125,0.10401258279051473,0.0016355440501194065,0.0,0.0,-0.9384956266929019,0.0,0.0028114425246363404,0.002811430183750776,0.06332650931976545,0.06333149218081528,0.0,-5.349560344389524e-05
1626108423.488893,-0.12346356605401877,4.172940325680171e-05,5.17,3.64,0.23699674010276794,0.0163409486413002,1.9512195587158203,0.03466796875,0.06787109375,0.10401258372101614,0.006298948502317603,0.0,0.0,-0.9383520183048467,0.0,0.002811442524239524,0.0028114301835381536,0.06332650931976537,0.06333149209333053,0.0,-5.253941327334845e-05
1626108423.548893,-0.11039902842292518,4.358165669575968e-05,5.17,3.64,0.15906330943107605,0.016595885157585144,1.9512195587158203,0.03466796875,0.06787109375,0.09932772456131747,0.007404513010161611,0.0,0.0,-0.9377343376558764,0.0,0.004798676548449332,0.00479864465311123,0.06583335639157224,0.06583817810566514,0.0,-4.4085161065308215e-05
1626108423.642893,-0.10282374792643587,4.537356637723715e-05,5.17,3.63,1.5232194527925458e-07,-1.416948293808673e-06,-1.097561001777649,-0.01171875,0.3701171875,0.09721899313992735,0.006773009135707412,0.0,0.0,-0.9376425560761833,0.0,0.0038448414872109603,0.0038448233074692773,0.06464014150673109,0.06464443101223967,0.0,-3.4000432224143486e-05
1626108423.668893,-0.09720578266647888,4.631409945147799e-05,5.17,3.63,0.0021566490177065134,0.016550105065107346,1.1585365533828735,-0.02734375,-0.02587890625,0.09120764213109779,0.006444522690930126,0.0,0.0,-0.9383056786761221,0.0,0.0028116004833554165,0.0028115912546159407,0.06331411848605667,0.06331814491142931,0.0,-2.746948033347609e-05
1626108423.746893,-0.09900099997162565,4.7179450128969326e-05,5.15,3.62,3.102972527813108e-07,-2.8864860723842867e-06,1.1585365533828735,-0.02734375,-0.02587890625,0.08161424325538372,-0.0006201256764490797,0.0,0.0,-0.9386006581746036,0.0,0.002811638136907188,0.0028116301542540374,0.06329479265515789,0.06329859426047454,0.0,-2.168002559472028e-05
1626108423.788893,-0.09792636514529512,4.884948778171933e-05,5.15,3.62,3.102972527813108e-07,-2.8864860723842867e-06,1.6463414430618286,0.0009765625,0.005859375,0.08161424325538372,-0.0006201256764490797,0.0,0.0,-0.9386006581746036,-1.0,0.002811638136907188,0.0028116301542540374,0.06329479265515789,0.06329859426047454,0.0,-2.168002559472028e-05
1626108423.848893,-0.08891299719954489,4.998479323774973e-05,5.14,3.62,3.102972527813108e-07,-2.8864860723842867e-06,1.6463414430618286,0.0009765625,0.005859375,0.07003029533714213,-0.04352352732197345,0.0,0.0,-0.9402425023426707,-1.0,0.0043177302243302814,0.004317714526686267,0.06519952523196648,0.06520314844570198,0.0,-1.6497495434081602e-05
1626108423.9348931,-0.07189968571190769,5.014304953178072e-05,5.14,3.62,0.01625809632241726,-0.3955305218696594,8.353658676147461,-0.029296875,0.1181640625,0.05408447209481429,-0.1308100921741971,0.0,0.0,-0.9517182198843785,-1.0,0.003380354060194848,0.003380347162651654,0.06401563662042038,0.06401876491117178,0.0,-1.2778466228990253e-05
1626108423.968893,-0.07176448628018872,4.686332582832243e-05,5.14,3.62,0.011476931162178516,-0.661417543888092,29.45121955871582,0.01611328125,0.009765625,0.04780059171810393,-0.17055741142147562,0.0,0.0,-0.9687343430677874,-1.0,0.002811501601327886,0.0028114972253207742,0.06328736131318706,0.06329023749717537,0.0,1.0269505026098238e-06
1626108424.038893,-0.054630779367489474,4.967901320065767e-05,5.13,3.62,0.007988469675183296,-0.8738328218460083,29.45121955871582,0.01611328125,0.009765625,0.042194032935368844,-0.2167764692869502,0.0,0.0,-0.9972617353938675,-1.0,0.0028114163641977546,0.0028114123855172233,0.06329893135637339,0.0633015704706239,0.0,1.4054526050256859e-05
1626108424.088893,-0.05539952488946034,5.355481324331824e-05,5.13,3.62,0.008782969787716866,-0.9424872398376465,51.34146499633789,-0.025390625,-0.1025390625,0.042194032935368844,-0.2167764692869502,0.0,0.0,-0.9972617353938675,-1.0,0.0028114163641977546,0.0028114123855172233,0.06329893135637339,0.0633015704706239,0.0,1.4054526050256859e-05
1626108424.148893,-0.04880805953602543,5.6650881948967275e-05,5.15,3.62,0.008782969787716866,-0.9424872398376465,51.34146499633789,-0.025390625,-0.1025390625,0.03592907486606046,-0.19886836194958513,0.0,0.0,-1.043966159539918,-1.0,0.005041869163807407,0.005041856211846505,0.06610768237062706,0.06611012453017551,0.0,3.8952983458757535e-05
1626108424.246893,-0.03734830556212051,6.292084833449719e-05,5.15,3.6,0.0069999354891479015,-0.9592247009277344,56.76829528808594,0.04248046875,-0.0244140625,0.02963788095747803,-0.19314807201275058,0.0,0.0,-1.1385681054293169,-1.0,0.0029239228897956614,0.0029239187048450415,0.0634679071070823,0.06346987791856815,0.0,7.744685557836094e-05
1626108424.268893,-0.036619067308590714,6.929548764799258e-05,5.15,3.6,0.006953376345336437,-0.9563841223716736,57.317073822021484,0.04052734375,-0.052734375,0.026521366346962512,-0.18939588844708083,0.0,0.0,-1.1942143929865885,-1.0,0.002811066298931894,0.0028110624139184087,0.063341376065627,0.06334314762771444,0.0,9.523012586441533e-05
1626108424.330893,-0.029697278289567256,7.318017540739534e-05,5.16,3.6,0.006643583998084068,-0.9258156418800354,57.317073822021484,0.04052734375,-0.052734375,0.02370466871680627,-0.18659998216669937,0.0,0.0,-1.250831181217275,-1.0,0.0028109433857956244,0.002810939639416396,0.06334646449888737,0.06334805155033714,0.0,0.00011305326055421745
1626108424.3888931,-0.030151935062259588,7.721225989165605e-05,5.16,3.6,0.00662309629842639,-0.9261574149131775,55.3658561706543,-0.10791015625,0.10009765625,0.02370466871680627,-0.18659998216669937,0.0,0.0,-1.250831181217275,-1.0,0.0028109433857956244,0.002810939639416396,0.06334646449888737,0.06334805155033714,0.0,0.00011305326055421745
1626108424.448893,-0.025757602207370743,8.123652883279805e-05,5.17,3.57,0.00662309629842639,-0.9261574149131775,55.3658561706543,-0.10791015625,0.10009765625,0.020451857188974604,-0.17902171352615454,0.0,0.0,-1.3124441240257738,-1.0,0.004555520616640105,0.004555510764964788,0.06556461360540033,0.06556604272275775,0.0,0.00013953721488625496
1626108424.538893,-0.021084388232727236,8.73918237573312e-05,5.18,3.56,0.00972577091306448,-0.8549401760101318,54.8780517578125,-0.00732421875,-0.03369140625,0.016893206809320698,-0.18333597117050462,0.0,0.0,-1.4194848983835697,0.0,0.0028110566987622743,0.0028110533650504395,0.06338026230778403,0.06338138262669815,0.0,0.00014881153224588273
1626108424.568893,-0.020823329062196746,8.992252872046977e-05,5.18,3.56,0.005561096128076315,-0.3139967620372772,38.29268264770508,-0.0224609375,-0.05029296875,0.015335930059439135,-0.18366356273831527,0.0,0.0,-1.474686155055281,0.0,0.002811059898376789,0.0028110568428130504,0.06338428424907387,0.06338527599771475,0.0,0.00013019832099995252
1626108424.628893,-0.019120790988692484,8.669942186852066e-05,5.12,3.56,0.0017662771278992295,0.016430484130978584,38.29268264770508,-0.0224609375,-0.05029296875,0.013935795440188466,-0.1808613788637709,0.0,0.0,-1.5161277948174323,0.0,0.002811046592101578,0.002811043809743897,0.0634019943157511,0.06340287018903251,0.0,0.00011134250307822608
1626108424.688893,-0.016860284139554874,7.762872274727129e-05,5.12,3.56,0.0003764047578442842,0.03307135030627251,-0.12195122241973877,0.005859375,-0.00732421875,0.013935795440188466,-0.1808613788637709,0.0,0.0,-1.5161277948174323,0.0,0.002811046592101578,0.002811043809743897,0.0634019943157511,0.06340287018903251,0.0,0.00011134250307822608
1626108424.748893,-0.015512432150742278,6.873007400198001e-05,5.19,3.56,0.0003764047578442842,0.03307135030627251,-0.12195122241973877,0.005859375,-0.00732421875,0.01234481463237045,-0.18167848251019433,0.0,0.0,-1.540562757961276,0.0,0.0040837405695770155,0.0040837355867545345,0.06503501646700725,0.06503578959065871,0.0,9.540719494509004e-05
1626108424.831238,-0.012622487262601945,6.083136910100224e-05,5.22,3.56,8.034166967263445e-07,7.473644018318737e-06,1.7073171138763428,-0.01171875,-0.017578125,0.009571695417958723,-0.1487630465723009,0.0,0.0,-1.5462699303930454,0.0,0.0031514985282146794,0.003151496187888605,0.06384914473628342,0.06384973759634376,0.0,8.719849920659482e-05
1626108424.869238,-0.012631902508513027,5.839189951111119e-05,5.22,3.56,9.041663702191727e-07,8.410849659412634e-06,1.3414634466171265,-0.0126953125,0.00439453125,0.008355347717246152,-0.1399191301425189,0.0,0.0,-1.5460708008371238,0.0,0.00281165161281693,0.002811649973630403,0.0634081478891758,0.06340866543483756,0.0,7.982279342950525e-05
1626108424.935238,-0.009629485046720858,5.530284836025327e-05,5.25,3.55,9.041663702191727e-07,8.410849659412634e-06,1.3414634466171265,-0.0126953125,0.00439453125,0.007267010294827508,-0.13055886574516146,0.0,0.0,-1.5459196108926208,0.0,0.002811597010027921,0.0028115956042475037,0.06341041273256637,0.06341086350210526,0.0,7.315973493637618e-05
1626108424.989238,-0.009828707258565708,5.1583202377764385e-05,5.25,3.55,9.014096917780989e-07,8.385206456296146e-06,1.2195122241973877,-0.001953125,0.01513671875,0.007267004204012869,-0.1175475086827623,0.0,0.0,-1.5454420239640165,-1.0,0.002811597010007293,0.0028115956042474794,0.0634104127325662,0.06341086349962684,0.0,7.389315909978584e-05
1626108425.049238,-0.00857123152852048,4.8116807392683e-05,5.24,3.53,0.00036870682379230857,-0.03299183025956154,1.2195122241973877,-0.001953125,0.01513671875,0.006095859859171253,-0.17001586821264528,0.0,0.0,-1.551667484160265,-1.0,0.004799133507796795,0.00479913026815146,0.06591077560700323,0.0659111666836956,0.0,7.014805812888698e-05
1626108425.143238,-0.006310424415585591,4.5269280876944475e-05,5.26,3.54,0.008052719756960869,-0.36262643337249756,2.682926893234253,0.0009765625,0.01806640625,0.004648510444422636,-0.2427889880811799,0.0,0.0,-1.55388840936992,-1.0,0.003845097129564097,0.0038450955443990065,0.06470207347295547,0.06470236562076956,0.0,5.696802060228962e-05
1626108425.169238,-0.006263914620367464,4.2095093674050703e-05,5.26,3.54,0.00867427233606577,-0.7606344223022461,35.853660583496094,0.01416015625,0.00439453125,0.004358565962610067,-0.27058767982924486,0.0,0.0,-1.560343595524581,0.0,0.002811726207169289,0.002811725444288182,0.06336905001826695,0.06336930207171129,0.0,5.190578479091352e-05
1626108425.247238,-0.004733716814379416,3.904093893077537e-05,5.2,3.54,0.011907702311873436,-0.873836100101471,35.853660583496094,0.01416015625,0.00439453125,0.0042488827033357185,-0.30602125401994934,0.0,0.0,-1.5888409585580243,0.0,0.0028117413936158005,0.0028117407391195547,0.06334417754801779,0.06334439407529147,0.0,4.2027434425663726e-05
1626108425.289238,-0.004683246311261519,3.6605723993699233e-05,5.2,3.54,0.006640372797846794,-0.4122258126735687,48.963417053222656,0.013671875,-0.0546875,0.0042488827033357185,-0.30602125401994934,0.0,0.0,-1.5888409585580243,0.0,0.0028117413936158005,0.0028117407391195547,0.06334417754801779,0.06334439407529147,0.0,4.2027434425663726e-05
1626108425.349238,-0.004121086518164391,3.244402391338136e-05,5.26,3.36,0.001770912786014378,-0.01647360809147358,48.963417053222656,0.013671875,-0.0546875,0.004223492960461894,-0.281973208261236,0.0,0.0,-1.6357398246004164,0.0,0.004317663196629365,0.004317661931063783,0.06524517973228841,0.06524536458685956,0.0,2.2415567052753004e-05
1626108425.435238,-0.004336234112804559,2.4247173456458564e-05,5.19,3.42,0.006441671866923571,0.04946133494377136,5.182927131652832,-0.0234375,-0.03759765625,0.0039296966978779125,-0.2560125315401155,0.0,0.0,-1.6891001883280579,0.0,0.0033802030958858076,0.003380202499606301,0.06406041116047055,0.06406054704235177,0.0,1.3000256312203728e-05
1626108425.469238,-0.004149559781160354,1.9659820644676887e-05,5.19,3.42,8.624225529274554e-07,-8.022535439522471e-06,0.5487805008888245,-0.00439453125,0.0068359375,0.003421766290332252,-0.24217707534799493,0.0,0.0,-1.6935321387397788,0.0,0.002811432656960991,0.0028114322940011394,0.06333178011575531,0.06333189665717799,0.0,1.8112884384802796e-05
1626108425.539238,-0.00396939056567965,1.9971560389235533e-05,5.13,3.46,8.650598601889214e-07,-8.047069059102796e-06,1.5243902206420898,0.01708984375,0.01171875,0.0029026082503465327,-0.22591886314654572,0.0,0.0,-1.6957295093171556,0.0,0.0028114327237840925,0.002811432418040983,0.06334084254098551,0.06334094231799292,0.0,1.8965864820892974e-05
1626108425.589238,-0.004044084595273526,2.145556258567391e-05,5.13,3.46,8.624225529274554e-07,-8.022535439522471e-06,1.5243902206420898,0.01708984375,0.01171875,0.002902603446184022,-0.20228129767204153,0.0,0.0,-1.6948266660978353,0.0,0.002811432723780021,0.002811432418040929,0.06334084254098547,0.06334094231764993,0.0,1.9379538589824068e-05
1626108425.649238,-0.003537200397119782,2.1296641523532546e-05,5.1,3.48,8.650598601889214e-07,-8.047069059102796e-06,1.5243902206420898,0.01708984375,0.01171875,0.002441128526518629,-0.16324073288861504,0.0,0.0,-1.6974509519365228,0.0,0.0038445358905514104,0.003844535437305394,0.0646658121199626,0.06466589735729056,0.0,1.9110962790173753e-05
1626108425.727238,-0.0024858782680146417,2.062989118138395e-05,5.09,3.5,8.624225529274554e-07,-8.022535439522471e-06,1.2804877758026123,-0.00927734375,0.0078125,0.001845827480159421,-0.1256982284443896,0.0,0.0,-1.693483870505579,0.0,0.0029242850598042323,0.0029242848613422407,0.06349050377958317,0.06349056700438846,0.0,1.6289991478333587e-05
1626108425.769238,-0.0025133776861536237,1.967208245112073e-05,5.09,3.5,8.650598601889214e-07,-8.047069059102796e-06,1.2804877758026123,-0.00927734375,0.0078125,0.0016000185067947777,-0.11715116406198287,0.0,0.0,-1.6927517804477652,0.0,0.0028114773441103745,0.002811477186454134,0.06335102853045703,0.06335108328632721,0.0,1.5267227382760466e-05
1626108425.831238,-0.001849528991166074,1.8842400776559743e-05,5.06,3.53,8.624225529274554e-07,-8.022535439522471e-06,1.2804877758026123,-0.00927734375,0.0078125,0.0013860436057561343,-0.045202894202666065,0.0,0.0,-1.6897208361772735,0.0,0.002811463018000358,0.002811462883092278,0.0633404754472329,0.06334052317662715,0.0,1.5323838889869302e-05
1626108425.8892379,-0.0018968513411809884,1.809236254792091e-05,5.06,3.53,8.650598601889214e-07,-8.047069059102796e-06,1.2804877758026123,-0.00537109375,0.0009765625,0.0013860436057561343,-0.045202894202666065,0.0,0.0,-1.6897208361772735,0.0,0.002811463018000358,0.002811462883092278,0.0633404754472329,0.06334052317662715,0.0,1.5323838889869302e-05
1626108425.949238,-0.0015700922156330363,1.7593550603458354e-05,5.05,3.53,8.598012186666892e-07,-7.998150977073237e-06,1.2804877758026123,-0.00537109375,0.0009765625,0.001164562232956151,-0.022014539054586703,0.0,0.0,-1.6893379177813352,0.0,0.004557277234802901,0.004557276946835387,0.06554173656582915,0.06554177901918568,0.0,1.5567179316616896e-05
1626108426.039238,-0.0012005809000502758,1.7095612567452985e-05,5.04,3.55,8.650598601889214e-07,-8.047069059102796e-06,1.2804877758026123,-0.001953125,0.009765625,0.0008894943001392632,-0.010963311417102604,0.5,0.0,-1.687914168172206,0.0,0.0036116323031117445,0.0036116321578851408,0.0643461489558791,0.06434618296869495,0.0,1.4873380990370533e-05
1626108426.069238,-0.0011970418982464087,1.6633009797821285e-05,5.04,3.55,0.003532300004735589,0.032858606427907944,1.2804877758026123,-0.001953125,0.009765625,0.0189260659210239,-0.010415139065233654,0.5,0.0,-1.6875657334019534,0.0,0.0028115996619339063,0.0028115995811444925,0.06331639375336548,0.06331642452307087,0.0,1.4374828378968219e-05
1626108426.143238,-0.0009021246348895605,1.6222977807477987e-05,5.02,3.54,0.05064265802502632,0.2150850147008896,6.7682929039001465,0.00048828125,-0.10546875,0.04051839098066908,-0.005010981378134098,0.5,0.0,-1.6869192023758355,0.0,0.002811628103736251,0.0028116267656750705,0.06329598162692705,0.06329601301939475,0.0,1.3329836992161212e-05
1626108426.189238,0.3991670300897326,1.581855116822763e-05,5.02,3.54,0.13035456836223602,0.0492355078458786,6.7682929039001465,0.00048828125,-0.10546875,0.04051839098066908,-0.005010981378134098,0.5,0.0,-1.6869192023758355,0.0,0.002811628103736251,0.0028116267656750705,0.06329598162692705,0.06329601301939475,0.0,1.3329836992161212e-05
1626108426.249238,0.37270422126905384,1.5263188734896116e-05,5.01,3.54,0.23237232863903046,-0.033066507428884506,3.7804877758026123,-0.07177734375,0.0634765625,0.06895615835373668,0.013791688387592612,0.5,0.0,-1.6805139989764295,0.0,0.0040802557920938285,0.004080240240015354,0.06490553580416035,0.06490558501696098,0.0,1.4281968684952714e-05
1626108426.331238,0.3510129211751725,1.5340829355398084e-05,5.07,3.54,0.3496508300304413,-0.06586331129074097,3.7804877758026123,-0.07177734375,0.0634765625,0.11249504516131069,0.010799706005370347,0.5,0.0,-1.6739625078211355,0.0,0.002811487959834236,0.0028114590436089386,0.06329584694414114,0.0632961891137669,0.0,0.00012164585362628383
1626108426.369238,0.34508488277038074,2.6056717532977685e-05,5.07,3.54,0.4447413980960846,-0.033075734972953796,2.317073106765747,-0.01708984375,-0.66357421875,0.12121434028250147,0.009986336893035385,0.5,0.0,-1.6759765191657439,0.0,0.002811410712584136,0.0028113820811461456,0.06330858305320133,0.06330912053967445,0.0,9.471886826604168e-05
1626108426.435238,0.3144049996443256,4.2657807850047296e-05,5.09,3.53,0.51002037525177,-0.03295668214559555,2.317073106765747,-0.01708984375,-0.66357421875,0.1212143412655325,-0.008422104644869689,0.5,0.0,-1.6765496656919625,0.0,0.002811410712144759,0.0028113820811416362,0.06330858305320133,0.06330912052973502,0.0,9.34673459979776e-05
1626108426.489238,-0.10538974012858972,5.100664703063937e-05,5.09,3.53,0.5430172681808472,-0.03320121392607689,3.2926828861236572,0.09765625,-0.96630859375,0.1301742248613268,-0.003541722742535626,0.5,0.0,-1.6787237087632136,0.0,0.0047986200011055,0.004798501858199828,0.06581813227923858,0.06581890622437778,0.0,2.8491768599250744e-05
1626108426.549238,-0.10680270319271658,3.8152549731114196e-05,5.05,3.52,0.5353240370750427,-0.01634211838245392,-3.170731782913208,0.005859375,-0.0361328125,0.15089188599476233,-0.003511181439775583,0.5,0.0,-1.6802199064457555,0.0,0.0028114320576323702,0.0028113972865678027,0.0633117162569269,0.06331269876517687,0.0,-4.6815678243256796e-05
1626108426.643238,-0.13475594943996613,1.0999515278002503e-05,5.03,3.51,0.5172876715660095,-0.01653677597641945,2.6219513416290283,-0.09619140625,0.22265625,0.18146930833116318,-0.017290558389162,0.5,0.0,-1.6837932469446921,0.0,0.002811487524987446,0.0028114287812320516,0.06332312308571258,0.06332473881574043,0.0,-0.0001720318372432911
1626108426.669238,-0.12132951756454552,-1.8413811109154107e-05,5.03,3.51,0.5014133453369141,0.032822415232658386,2.6219513416290283,-0.09619140625,0.22265625,0.19378968193216706,-0.008131204359690445,0.5,0.0,-1.6840367529825262,0.0,0.002811474563918191,0.0028114114677353632,0.06331286569078846,0.06331486724330884,0.0,-0.00020169149635995758
1626108426.729238,-0.13288481682235073,-4.432917890475825e-05,5.02,3.46,0.48788323998451233,0.016345156356692314,-3.658536672592163,0.169921875,1.06298828125,0.19378968193216706,-0.008131204359690445,0.5,0.0,-1.6840367529825262,0.0,0.002811474563918191,0.0028114114677353632,0.06331286569078846,0.06331486724330884,0.0,-0.00020169149635995758
1626108426.789238,-0.15804455425407732,-6.565570235712619e-05,5.02,3.46,0.499647855758667,0.016550429165363312,-3.658536672592163,0.169921875,1.06298828125,0.19835691001600936,-0.003582308349363946,0.5,0.0,-1.6838180962265727,0.0,0.004317785128259954,0.004317565583924997,0.06522005517105486,0.06522257083037333,0.0,-0.0002037835839100349
1626108426.849238,-0.1653797266333618,-7.616364182184756e-05,5.01,3.43,0.49611252546310425,-0.01648729480803013,-1.1585365533828735,0.17919921875,-0.16845703125,0.2121917439471117,-0.003435760460168528,0.5,0.0,-1.683386130509172,0.0,0.002811626384919729,0.002811539934653581,0.06330276762522825,0.06330574381383106,0.0,-0.00019314344142877619
1626108426.935238,-0.20365181374373525,-7.550633627608284e-05,5.01,3.38,0.5075193047523499,0.01654910109937191,-1.1585365533828735,0.17919921875,-0.16845703125,0.22595213198411318,0.000770494629927147,0.0,0.0,-1.6843409002819947,0.0,0.0028116370492326246,0.002811529094475077,0.06330352389623504,0.06330769042795457,0.0,-0.00019835456784528637
1626108426.969238,-0.19080849745234166,-7.164105203792734e-05,5.01,3.38,0.5033540725708008,0.0001394464197801426,-2.682926893234253,-0.60595703125,-0.00439453125,0.23156026743672653,0.0007248566273774423,0.0,0.0,-1.684287937359454,0.0,0.0028115789076839574,0.002811463783810942,0.06331253103901541,0.06331733753997068,0.0,-0.00019617913959880348
1626108427.039238,-0.21942677102412061,-7.028216854554626e-05,5.03,3.33,0.47082316875457764,-0.03296976536512375,-2.9268293380737305,-0.01611328125,0.00341796875,0.2315602673978293,0.0005800803390509657,0.0,0.0,-1.6842924515489333,0.0,0.002811578904839677,0.002811463783773235,0.06331253103901525,0.06331733735591973,0.0,-0.0001962218383237613
1626108427.089238,-0.21004034722429893,-7.24299177521745e-05,5.03,3.33,0.3931983411312103,-7.316094706766307e-05,-2.9268293380737305,-0.01611328125,0.00341796875,0.23162221619395332,0.0046379313034863884,0.0,0.0,-1.6842650971430824,0.0,0.003844710257453939,0.0038444831065236923,0.06463847201669852,0.06464398357400512,0.0,-0.00018416253276954571
1626108427.149238,-0.21890293826449836,-7.086211089316114e-05,5.0,3.3,0.287966251373291,0.016479117795825005,0.9756097793579102,-0.0615234375,0.32763671875,0.23689022714950722,0.004430763389100326,0.0,0.0,-1.6843786807048284,0.0,0.0028115845142394538,0.00281146100399283,0.06331690452186202,0.06332294530524311,0.0,-0.00017695272357013382
1626108427.227238,-0.23586780863181073,-6.525450450253241e-05,5.06,3.25,0.0862388014793396,-7.760963489999995e-05,0.9756097793579102,-0.01123046875,0.1123046875,0.2227821421988889,-0.006739647652738274,0.0,0.0,-1.6859337001716463,0.0,0.002810741999767597,0.0028106153230757595,0.06332912820286007,0.0633363421555685,0.0,-0.0001776642150536585
1626108427.269238,-0.22611754216813953,-6.221131151653685e-05,5.06,3.25,0.0862388014793396,-7.760963489999995e-05,0.9756097793579102,-0.01123046875,0.1123046875,0.20762365800485835,-0.0011110101517050222,0.0,0.0,-1.6861097623399508,0.0,0.002811352815215193,0.002811243671737031,0.06332118725509794,0.06332884128291695,0.0,-0.0001686802765655839
1626108427.330933,-0.23272881208005244,-6.225045410099595e-05,5.09,3.21,0.015764378011226654,0.00020308193052187562,0.12195122241973877,0.013671875,0.09375,0.20762365800485835,-0.0011110101517050222,0.0,0.0,-1.6861097623399508,0.0,0.002811352815215193,0.002811243671737031,0.06332118725509794,0.06332884128291695,0.0,-0.0001686802765655839
1626108427.388933,-0.2307959533732745,-6.014922860091674e-05,5.09,3.21,1.1803124380094232e-06,1.097965105145704e-05,0.12195122241973877,0.013671875,0.09375,0.1825349989910477,0.0016340577920623254,0.0,0.0,-1.6859243778654829,0.0,0.004557406878380729,0.004557133543794175,0.06552409519754325,0.06553224459365566,0.0,-0.00016128869692731652
1626108427.4489331,-0.21324446941448066,-5.554998054551743e-05,5.13,3.19,1.1839219951070845e-06,1.1013227776857093e-05,1.0365853309631348,-0.0009765625,-0.00732421875,0.16717476635766948,0.028559695941337594,0.0,0.0,-1.685738027575619,1.0,0.002811607448653906,0.0028115201877275905,0.06330974369955376,0.06331791052873648,0.0,-0.0001461007487198118
1626108427.538933,-0.18818040484987358,-5.088734525178585e-05,5.15,3.17,0.007037539966404438,0.4465535581111908,-22.98780632019043,-0.0087890625,0.10205078125,0.12806419283631362,0.09801471781424612,0.0,0.0,-1.6792298586296954,1.0,0.0028116303096875793,0.0028115667461156447,0.06330384881734874,0.06331194145067603,0.0,-0.00011550246423439002
1626108427.568933,-0.18615979838445088,-4.452404377695669e-05,5.15,3.17,0.007037539966404438,0.4465535581111908,-22.98780632019043,-0.0087890625,0.10205078125,0.11132772766151783,0.12295332107175859,0.0,0.0,-1.6626535083576237,1.0,0.0028116452737430306,0.0028115952563074692,0.06328483185149338,0.06329267137199349,0.0,-0.00017504724482243772
1626108427.6429331,-0.14676110558308786,-3.61446560469172e-05,5.17,3.15,0.00887646246701479,0.6082372665405273,-35.67073440551758,-0.03759765625,-0.01611328125,0.11132772766151783,0.12295332107175859,0.0,0.0,-1.6626535083576237,1.0,0.0028116452737430306,0.0028115952563074692,0.06328483185149338,0.06329267137199349,0.0,-0.00017504724482243772
1626108427.6889331,-0.14837167480638563,-3.055203857055272e-05,5.17,3.15,0.005497314967215061,0.8267602920532227,-35.67073440551758,-0.03759765625,-0.01611328125,0.09416478162785326,0.18759640675017164,0.0,0.0,-1.6313051597264796,1.0,0.004080168799477573,0.004080084011927052,0.06489586926771784,0.06490346679752132,0.0,-0.0002714928958037315
1626108427.748933,-0.1265559322181812,-5.0455408032589965e-05,5.18,3.14,0.007990481331944466,0.8738141059875488,-50.3658561706543,0.0771484375,0.11767578125,0.08314042491614435,0.18237189500546827,0.0,0.0,-1.5971708882970699,1.0,0.002811529887885707,0.002811494214683001,0.06327830742814847,0.06328539071423409,0.0,-0.0004062172032820039
1626108427.830933,-0.09628301512271889,-8.254741145996315e-05,5.2,3.13,0.010511358268558979,0.9232866168022156,-54.14634323120117,-0.02587890625,-0.1064453125,0.061523929848621,0.1684946106333591,0.0,0.0,-1.4992653460138843,1.0,0.0028112418067024686,0.002811215668160392,0.06330029669488545,0.06330644456241773,0.0,-0.0007192226995329959
1626108427.868933,-0.09689681212510677,-0.0001286037084954353,5.2,3.13,0.010511358268558979,0.9232866168022156,-54.14634323120117,-0.02587890625,-0.1064453125,0.052728690294511125,0.16384519753411567,0.0,0.0,-1.4452840550116215,1.0,0.0028110623476925306,0.0028110402873283355,0.06332264672978258,0.06332830884104564,0.0,-0.0008591592167133396
1626108427.934933,-0.07158487117648511,-0.00018072638224376076,5.2,3.12,0.012707405723631382,0.9427047371864319,-55.0,-0.03125,-0.05712890625,0.052728690294511125,0.16384519753411567,0.0,0.0,-1.4452840550116215,1.0,0.0028110623476925306,0.0028110402873283355,0.06332264672978258,0.06332830884104564,0.0,-0.0008591592167133396
1626108427.988933,-0.07328377300607646,-0.00023078497769571645,5.2,3.12,0.008374216966331005,0.9068563580513,-55.0,-0.03125,-0.05712890625,0.04347330395278191,0.15504380968749998,0.0,0.0,-1.3847185386226275,1.0,0.004796939921958227,0.0047968900168255234,0.06584452474821183,0.06584979690926213,0.0,-0.0009943401474382507
1626108428.048933,-0.0634022749772892,-0.00027403874523080084,5.16,3.11,0.008766291663050652,0.9426423907279968,-56.524391174316406,-0.00537109375,0.06884765625,0.03831626983405134,0.1584771974857198,0.0,0.0,-1.3345876084512067,1.0,0.0028109191126151067,0.0028109037593192997,0.06335074932904713,0.06335546103044731,0.0,-0.001089626428842617
1626108428.1429331,-0.045003427616223265,-0.00031094155810157647,5.15,3.11,0.010530076920986176,0.9262350797653198,-54.20731735229492,0.0390625,-0.06640625,0.027415805725907492,0.15727954500201477,0.0,0.0,-1.2214752518887488,1.0,0.0028109356188015426,0.0028109247172928564,0.06338796023815971,0.06339180771742982,0.0,-0.0012472554534427463
1626108428.1689332,-0.04495117732669059,-0.0003406188238363177,5.15,3.11,0.010535960085690022,0.923208475112915,-54.20731735229492,0.0390625,-0.06640625,0.02626434036896589,0.15067379541230932,0.0,0.0,-1.2151469441471956,1.0,0.005286633827611491,0.005286599921909798,0.06648022890603497,0.06648414915440325,0.0,-0.0012631701084428856
1626108428.228933,-0.037401731279599955,-0.0003647639296440307,5.15,3.1,0.010535960085690022,0.923208475112915,-53.17073440551758,-0.0771484375,-0.056640625,0.023044527096417553,0.15796608870253478,0.0,0.0,-1.1655946409594713,1.0,0.002810909289732797,0.0028109005447207107,0.0633903255326617,0.06339378124369835,0.0,-0.0012983704605810651
1626108428.288933,-0.033604211827991504,-0.00037891985811674847,5.15,3.1,0.012293929234147072,0.9068552851676941,-53.17073440551758,-0.0771484375,-0.056640625,0.018717103443248288,0.15489316067828846,0.0,0.0,-1.1064920552954827,1.0,0.004316229331695793,0.004316214337077704,0.06531027624034884,0.06531340277237656,0.0,-0.0013479834151985004
1626108428.330933,-0.027415805725907492,-0.00037891985811674847,5.17,3.12,0.012659209780395031,0.9397679567337036,-55.73170852661133,0.072265625,0.03173828125,0.0158944765117249,0.16098313524407384,0.0,0.0,-1.055295051543065,1.0,0.002811083498195083,0.0028110778919416364,0.06340187616792932,0.06340463715808796,0.0,-0.001367314051300013
1626108428.348933,-0.027272673313289156,-0.0003879419898533803,5.17,3.12,0.014807796105742455,0.9562423825263977,-55.73170852661133,0.072265625,0.03173828125,0.012851290293532072,0.161962404451779,0.0,0.0,-0.9973672663189477,1.0,0.003379633240128668,0.00337962738516855,0.06414258188736985,0.0641450475958281,0.0,-0.0013944418195443828
