time,la_x,la_y,uwb_x,uwb_y,vel_linear_x,vel_angular_z,mpu_ang_vel_z,mpu_linear_acc_x,mpu_linear_acc_y,odom_linear_x,odom_angular_z,odom_filtered_linear_x,odom_filtered_angular_z,odom_yaw,odom_filtered_yaw
1624633601.930193,-4.352275592824813e-09,-1.030977049952766e-09,0.0,0.0,,,,,,-3.109331641606183e-06,0.001967005110883947,-3.106225945530835e-06,0.001763392947197629,1.3392715506183066,1.3408215296350305
1624633601.930193,-4.352275592824813e-09,-1.030977049952766e-09,0.0,0.0,,,1.3414634466171265,-0.0078125,0.0029296875,-3.109331641606183e-06,0.001967005110883947,-3.106225945530835e-06,0.001763392947197629,1.3392715506183066,1.3408215296350305
1624633601.930193,-4.352275592824813e-09,-1.030977049952766e-09,0.0,0.0,,,1.3414634466171265,-0.0078125,0.0029296875,-3.0396777345813435e-06,0.002005769869874658,-3.106225945530835e-06,0.001763392947197629,1.3393172664563886,1.3408215296350305
1624633602.012193,1.0778227369599195e-09,-9.436025533788913e-10,0.0,0.0,,,1.3414634466171265,-0.0078125,0.0029296875,-3.0396777345813435e-06,0.002005769869874658,-3.0962275626250027e-06,0.0018351885496323767,1.3393172664563886,1.3409082804217631
1624633602.012193,1.0778227369599195e-09,-9.436025533788913e-10,0.0,0.0,3.856590410578065e-06,-3.587525861803442e-05,1.3414634466171265,-0.0078125,0.0029296875,-3.0396777345813435e-06,0.002005769869874658,-3.0962275626250027e-06,0.0018351885496323767,1.3393172664563886,1.3409082804217631
1624633602.012193,1.0778227369599195e-09,-9.436025533788913e-10,0.0,0.0,3.856590410578065e-06,-3.587525861803442e-05,1.3414634466171265,-0.0078125,0.0029296875,-3.0396777345813435e-06,0.002005769869874658,-3.0962275626250027e-06,0.0018351885496323767,1.3393172664563886,1.3409082804217631
1624633602.012193,1.0778227369599195e-09,-9.436025533788913e-10,0.0,0.0,3.856590410578065e-06,-3.587525861803442e-05,1.3414634466171265,-0.0078125,0.0029296875,-3.0396777345813435e-06,0.002005769869874658,-3.0962275626250027e-06,0.0018351885496323767,1.3393172664563886,1.3409082804217631
1624633602.012193,1.0778227369599195e-09,-9.436025533788913e-10,0.0,0.0,3.856590410578065e-06,-3.587525861803442e-05,1.3414634466171265,-0.0078125,0.0029296875,-3.1098421069683195e-06,0.0019240077583147874,-3.0962275626250027e-06,0.0018351885496323767,1.339271378324998,1.3409082804217631
1624633602.050193,-1.8240716784657118e-11,-8.589978692752815e-10,0.0,0.0,3.856590410578065e-06,-3.587525861803442e-05,1.3414634466171265,-0.0078125,0.0029296875,-3.1098421069683195e-06,0.0019240077583147874,-3.0982748399000398e-06,0.0018110760443318847,1.339271378324998,1.3408843985478232
1624633602.050193,-1.8240716784657118e-11,-8.589978692752815e-10,0.0,0.0,3.856590410578065e-06,-3.587525861803442e-05,1.3414634466171265,-0.00830078125,0.0078125,-3.1098421069683195e-06,0.0019240077583147874,-3.0982748399000398e-06,0.0018110760443318847,1.339271378324998,1.3408843985478232
1624633602.050193,-1.8240716784657118e-11,-8.589978692752815e-10,5.86,4.97,3.856590410578065e-06,-3.587525861803442e-05,1.3414634466171265,-0.00830078125,0.0078125,-3.1098421069683195e-06,0.0019240077583147874,-3.0982748399000398e-06,0.0018110760443318847,1.339271378324998,1.3408843985478232
1624633602.050193,-1.8240716784657118e-11,-8.589978692752815e-10,5.86,4.97,3.856590410578065e-06,-3.587525861803442e-05,1.3414634466171265,-0.00830078125,0.0078125,-3.1098421069683195e-06,0.0019240077583147874,-3.0982748399000398e-06,0.0018110760443318847,1.339271378324998,1.3408843985478232
1624633602.050193,-1.8240716784657118e-11,-8.589978692752815e-10,5.86,4.97,3.856590410578065e-06,-3.587525861803442e-05,1.3414634466171265,-0.00830078125,0.0078125,-3.1109048212512937e-06,0.0016122846624204003,-3.0982748399000398e-06,0.0018110760443318847,1.339260670782354,1.3408843985478232
1624633602.110193,-1.0644623197653018e-09,-7.731224855724188e-10,5.86,4.97,3.856590410578065e-06,-3.587525861803442e-05,1.3414634466171265,-0.00830078125,0.0078125,-3.1109048212512937e-06,0.0016122846624204003,-3.1002689450819755e-06,0.0016646335899191652,1.339260670782354,1.340889577096495
1624633602.110193,-1.0644623197653018e-09,-7.731224855724188e-10,5.86,4.97,3.856590410578065e-06,-3.587525861803442e-05,1.3414634466171265,-0.00830078125,0.0078125,-3.1109048212512937e-06,0.0016122846624204003,-3.1002689450819755e-06,0.0016646335899191652,1.339260670782354,1.340889577096495
1624633602.110193,-1.0644623197653018e-09,-7.731224855724188e-10,5.86,4.97,3.856590410578065e-06,-3.587525861803442e-05,1.3414634466171265,-0.00830078125,0.0078125,-3.1109048212512937e-06,0.0016122846624204003,-3.1002689450819755e-06,0.0016646335899191652,1.339260670782354,1.340889577096495
1624633602.110193,-1.0644623197653018e-09,-7.731224855724188e-10,5.86,4.97,3.856590410578065e-06,-3.587525861803442e-05,1.3414634466171265,-0.00830078125,0.0078125,-3.1109048212512937e-06,0.0016122846624204003,-3.1002689450819755e-06,0.0016646335899191652,1.339260670782354,1.340889577096495
1624633602.170193,-1.8342324113845996e-09,-6.881440180105552e-10,5.86,4.97,3.856590410578065e-06,-3.587525861803442e-05,1.3414634466171265,-0.00830078125,0.0078125,-3.1094217562295866e-06,0.0015109186027777767,-3.1018002699228802e-06,0.0015403754869025806,1.3392543306653448,1.3408863618716034
1624633602.170193,-1.8342324113845996e-09,-6.881440180105552e-10,5.86,4.97,3.856590410578065e-06,-3.587525861803442e-05,1.3414634466171265,-0.00830078125,0.0078125,-3.1094217562295866e-06,0.0015109186027777767,-3.1018002699228802e-06,0.0015403754869025806,1.3392543306653448,1.3408863618716034
1624633602.170193,-1.8342324113845996e-09,-6.881440180105552e-10,5.87,4.98,3.856590410578065e-06,-3.587525861803442e-05,1.3414634466171265,-0.00830078125,0.0078125,-3.1094217562295866e-06,0.0015109186027777767,-3.1018002699228802e-06,0.0015403754869025806,1.3392543306653448,1.3408863618716034
1624633602.170193,-1.8342324113845996e-09,-6.881440180105552e-10,5.87,4.98,3.856590410578065e-06,-3.587525861803442e-05,1.3414634466171265,-0.01318359375,0.01318359375,-3.1094217562295866e-06,0.0015109186027777767,-3.1018002699228802e-06,0.0015403754869025806,1.3392543306653448,1.3408863618716034
1624633602.170193,-1.8342324113845996e-09,-6.881440180105552e-10,5.87,4.98,3.856590410578065e-06,-3.587525861803442e-05,1.3414634466171265,-0.01318359375,0.01318359375,-3.1094217562295866e-06,0.0015109186027777767,-3.1018002699228802e-06,0.0015403754869025806,1.3392543306653448,1.3408863618716034
1624633602.230193,-2.6372254058469102e-09,-6.051666160806107e-10,5.87,4.98,3.856590410578065e-06,-3.587525861803442e-05,1.3414634466171265,-0.01318359375,0.01318359375,-3.111243822118442e-06,0.0017177296603066144,-3.103442933912905e-06,0.0015455645024633534,1.3392607455955186,1.340883926633475
1624633602.230193,-2.6372254058469102e-09,-6.051666160806107e-10,5.87,4.98,3.856590410578065e-06,-3.587525861803442e-05,1.3414634466171265,-0.01318359375,0.01318359375,-3.111243822118442e-06,0.0017177296603066144,-3.103442933912905e-06,0.0015455645024633534,1.3392607455955186,1.340883926633475
1624633602.230193,-2.6372254058469102e-09,-6.051666160806107e-10,5.87,4.98,3.856590410578065e-06,-3.587525861803442e-05,1.3414634466171265,-0.01318359375,0.01318359375,-3.111243822118442e-06,0.0017177296603066144,-3.103442933912905e-06,0.0015455645024633534,1.3392607455955186,1.340883926633475
1624633602.230193,-2.6372254058469102e-09,-6.051666160806107e-10,5.87,4.98,3.856590410578065e-06,-3.587525861803442e-05,1.3414634466171265,-0.01318359375,0.01318359375,-3.111243822118442e-06,0.0017177296603066144,-3.103442933912905e-06,0.0015455645024633534,1.3392607455955186,1.340883926633475
1624633602.230193,-2.6372254058469102e-09,-6.051666160806107e-10,5.87,4.98,3.856590410578065e-06,-3.587525861803442e-05,1.3414634466171265,-0.01318359375,0.01318359375,-3.111243822118442e-06,0.0017177296603066144,-3.103442933912905e-06,0.0015455645024633534,1.3392607455955186,1.340883926633475
1624633602.230193,-3.2137119326799566e-09,-5.456270543908977e-10,5.87,4.98,3.856590410578065e-06,-3.587525861803442e-05,1.3414634466171265,-0.01318359375,0.01318359375,-3.111243822118442e-06,0.0017177296603066144,-3.1045432403265022e-06,0.001552797134983758,1.3392607455955186,1.3407991643308181
1624633602.230193,-3.2137119326799566e-09,-5.456270543908977e-10,5.87,4.98,3.856590410578065e-06,-3.587525861803442e-05,1.3414634466171265,-0.01318359375,0.01318359375,-3.111243822118442e-06,0.0017177296603066144,-3.1045432403265022e-06,0.001552797134983758,1.3392607455955186,1.3407991643308181
1624633602.230193,-3.2137119326799566e-09,-5.456270543908977e-10,5.86,4.98,3.856590410578065e-06,-3.587525861803442e-05,1.3414634466171265,-0.0126953125,0.0126953125,-3.111243822118442e-06,0.0017177296603066144,-3.1045432403265022e-06,0.001552797134983758,1.3392607455955186,1.3407991643308181
1624633602.230193,-3.2137119326799566e-09,-5.456270543908977e-10,5.86,4.98,3.856590410578065e-06,-3.587525861803442e-05,1.3414634466171265,-0.0126953125,0.0126953125,-3.111243822118442e-06,0.0017177296603066144,-3.1045432403265022e-06,0.001552797134983758,1.3392607455955186,1.3407991643308181
1624633602.230193,-3.2137119326799566e-09,-5.456270543908977e-10,5.86,4.98,3.856590410578065e-06,-3.587525861803442e-05,1.3414634466171265,-0.0126953125,0.0126953125,-3.111243822118442e-06,0.0017177296603066144,-3.1045432403265022e-06,0.001552797134983758,1.3392607455955186,1.3407991643308181
1624633602.304193,-1.2348387193773396e-10,-4.813940510803627e-10,5.86,4.98,3.856590410578065e-06,-3.587525861803442e-05,1.3414634466171265,-0.0126953125,0.0126953125,-3.06615897005918e-06,0.0017565952591132722,-3.09889198852967e-06,0.0016023988768690974,1.3392863018008683,1.3408485914535182
1624633602.304193,-1.2348387193773396e-10,-4.813940510803627e-10,5.86,4.98,3.856590410578065e-06,-3.587525861803442e-05,1.3414634466171265,-0.0126953125,0.0126953125,-3.06615897005918e-06,0.0017565952591132722,-3.09889198852967e-06,0.0016023988768690974,1.3392863018008683,1.3408485914535182
1624633602.304193,-1.2348387193773396e-10,-4.813940510803627e-10,5.86,4.98,3.856590410578065e-06,-3.587525861803442e-05,1.3414634466171265,-0.0126953125,0.0126953125,-3.06615897005918e-06,0.0017565952591132722,-3.09889198852967e-06,0.0016023988768690974,1.3392863018008683,1.3408485914535182
1624633602.304193,-1.2348387193773396e-10,-4.813940510803627e-10,5.86,4.98,3.856590410578065e-06,-3.587525861803442e-05,1.3414634466171265,-0.0126953125,0.0126953125,-3.06615897005918e-06,0.0017565952591132722,-3.09889198852967e-06,0.0016023988768690974,1.3392863018008683,1.3408485914535182
1624633602.304193,-1.2348387193773396e-10,-4.813940510803627e-10,5.86,4.98,3.856590410578065e-06,-3.587525861803442e-05,1.3414634466171265,-0.0126953125,0.0126953125,-3.06615897005918e-06,0.0017565952591132722,-3.09889198852967e-06,0.0016023988768690974,1.3392863018008683,1.3408485914535182
1624633602.350193,-1.0584402221957764e-09,-4.1832996328005363e-10,5.86,4.98,3.856590410578065e-06,-3.587525861803442e-05,1.3414634466171265,-0.0126953125,0.0126953125,-3.110498306407425e-06,0.0016709143627046893,-3.1006777813683352e-06,0.0015707924212723264,1.3392594854501239,1.340830965194806
1624633602.350193,-1.0584402221957764e-09,-4.1832996328005363e-10,5.86,4.98,3.856590410578065e-06,-3.587525861803442e-05,1.3414634466171265,-0.0126953125,0.0126953125,-3.110498306407425e-06,0.0016709143627046893,-3.1006777813683352e-06,0.0015707924212723264,1.3392594854501239,1.340830965194806
1624633602.350193,-1.0584402221957764e-09,-4.1832996328005363e-10,5.87,4.98,3.856590410578065e-06,-3.587525861803442e-05,1.3414634466171265,-0.0126953125,0.0126953125,-3.110498306407425e-06,0.0016709143627046893,-3.1006777813683352e-06,0.0015707924212723264,1.3392594854501239,1.340830965194806
1624633602.350193,-1.0584402221957764e-09,-4.1832996328005363e-10,5.87,4.98,3.856590410578065e-06,-3.587525861803442e-05,1.402438998222351,-0.01611328125,0.0068359375,-3.110498306407425e-06,0.0016709143627046893,-3.1006777813683352e-06,0.0015707924212723264,1.3392594854501239,1.340830965194806
1624633602.350193,-1.0584402221957764e-09,-4.1832996328005363e-10,5.87,4.98,3.856590410578065e-06,-3.587525861803442e-05,1.402438998222351,-0.01611328125,0.0068359375,-3.110498306407425e-06,0.0016709143627046893,-3.1006777813683352e-06,0.0015707924212723264,1.3392594854501239,1.340830965194806
1624633602.410193,-1.7758912041846924e-09,-3.55512359019819e-10,5.87,4.98,3.856590410578065e-06,-3.587525861803442e-05,1.402438998222351,-0.01611328125,0.0068359375,-3.1093776846490985e-06,0.0018162036009688731,-3.1021074202750165e-06,0.0016196636939872272,1.339263209226409,1.340838285685405
1624633602.410193,-1.7758912041846924e-09,-3.55512359019819e-10,5.87,4.98,3.856590410578065e-06,-3.587525861803442e-05,1.402438998222351,-0.01611328125,0.0068359375,-3.1093776846490985e-06,0.0018162036009688731,-3.1021074202750165e-06,0.0016196636939872272,1.339263209226409,1.340838285685405
1624633602.410193,-1.7758912041846924e-09,-3.55512359019819e-10,5.87,4.98,3.856590410578065e-06,-3.587525861803442e-05,1.402438998222351,-0.01611328125,0.0068359375,-3.1093776846490985e-06,0.0018162036009688731,-3.1021074202750165e-06,0.0016196636939872272,1.339263209226409,1.340838285685405
1624633602.410193,-1.7758912041846924e-09,-3.55512359019819e-10,5.87,4.98,3.856590410578065e-06,-3.587525861803442e-05,1.402438998222351,-0.01611328125,0.0068359375,-3.1093776846490985e-06,0.0018162036009688731,-3.1021074202750165e-06,0.0016196636939872272,1.339263209226409,1.340838285685405
1624633602.410193,-1.7758912041846924e-09,-3.55512359019819e-10,5.87,4.98,3.856590410578065e-06,-3.587525861803442e-05,1.402438998222351,-0.01611328125,0.0068359375,-3.1093776846490985e-06,0.0018162036009688731,-3.1021074202750165e-06,0.0016196636939872272,1.339263209226409,1.340838285685405
1624633602.470193,-2.254011231573227e-09,-2.9409154345452477e-10,5.87,4.98,3.856590410578065e-06,-3.587525861803442e-05,1.402438998222351,-0.01611328125,0.0068359375,-3.107848451039429e-06,0.0017020124251511347,-3.10312521126071e-06,0.0015820042879601285,1.3392604572225992,1.3408412898479922
1624633602.470193,-2.254011231573227e-09,-2.9409154345452477e-10,5.87,4.98,3.856590410578065e-06,-3.587525861803442e-05,1.402438998222351,-0.01611328125,0.0068359375,-3.107848451039429e-06,0.0017020124251511347,-3.10312521126071e-06,0.0015820042879601285,1.3392604572225992,1.3408412898479922
1624633602.470193,-2.254011231573227e-09,-2.9409154345452477e-10,5.88,5.0,3.856590410578065e-06,-3.587525861803442e-05,1.402438998222351,-0.01611328125,0.0068359375,-3.107848451039429e-06,0.0017020124251511347,-3.10312521126071e-06,0.0015820042879601285,1.3392604572225992,1.3408412898479922
1624633602.470193,-2.254011231573227e-09,-2.9409154345452477e-10,5.88,5.0,3.856590410578065e-06,-3.587525861803442e-05,1.3414634466171265,-0.01220703125,0.0029296875,-3.107848451039429e-06,0.0017020124251511347,-3.10312521126071e-06,0.0015820042879601285,1.3392604572225992,1.3408412898479922
1624633602.470193,-2.254011231573227e-09,-2.9409154345452477e-10,5.88,5.0,3.856590410578065e-06,-3.587525861803442e-05,1.3414634466171265,-0.01220703125,0.0029296875,-3.107848451039429e-06,0.0017020124251511347,-3.10312521126071e-06,0.0015820042879601285,1.3392604572225992,1.3408412898479922
1624633602.530193,-2.7717176145722933e-09,-2.3463787225886844e-10,5.88,5.0,3.856590410578065e-06,-3.587525861803442e-05,1.3414634466171265,-0.01220703125,0.0029296875,-3.1092703160452654e-06,0.0018245587399550811,-3.1042484189584325e-06,0.0016174534942920147,1.3392650123963663,1.340845958514819
1624633602.530193,-2.7717176145722933e-09,-2.3463787225886844e-10,5.88,5.0,3.856590410578065e-06,-3.587525861803442e-05,1.3414634466171265,-0.01220703125,0.0029296875,-3.1092703160452654e-06,0.0018245587399550811,-3.1042484189584325e-06,0.0016174534942920147,1.3392650123963663,1.340845958514819
1624633602.530193,-2.7717176145722933e-09,-2.3463787225886844e-10,5.88,5.0,3.856590410578065e-06,-3.587525861803442e-05,1.3414634466171265,-0.01220703125,0.0029296875,-3.1092703160452654e-06,0.0018245587399550811,-3.1042484189584325e-06,0.0016174534942920147,1.3392650123963663,1.340845958514819
1624633602.530193,-2.7717176145722933e-09,-2.3463787225886844e-10,5.88,5.0,3.856590410578065e-06,-3.587525861803442e-05,1.3414634466171265,-0.01220703125,0.0029296875,-3.1092703160452654e-06,0.0018245587399550811,-3.1042484189584325e-06,0.0016174534942920147,1.3392650123963663,1.340845958514819
1624633602.530193,-2.7717176145722933e-09,-2.3463787225886844e-10,5.88,5.0,3.856590410578065e-06,-3.587525861803442e-05,1.3414634466171265,-0.01220703125,0.0029296875,-3.1092703160452654e-06,0.0018245587399550811,-3.1042484189584325e-06,0.0016174534942920147,1.3392650123963663,1.340845958514819
1624633602.530193,-3.143251997925021e-09,-1.9200432183045805e-10,5.88,5.0,3.856590410578065e-06,-3.587525861803442e-05,1.3414634466171265,-0.01220703125,0.0029296875,-3.1092703160452654e-06,0.0018245587399550811,-3.1049574492881797e-06,0.001636522865919705,1.3392650123963663,1.3407641066865423
1624633602.530193,-3.143251997925021e-09,-1.9200432183045805e-10,5.88,5.0,3.856590410578065e-06,-3.587525861803442e-05,1.3414634466171265,-0.01611328125,0.01318359375,-3.1092703160452654e-06,0.0018245587399550811,-3.1049574492881797e-06,0.001636522865919705,1.3392650123963663,1.3407641066865423
1624633602.530193,-3.143251997925021e-09,-1.9200432183045805e-10,5.88,4.99,3.856590410578065e-06,-3.587525861803442e-05,1.3414634466171265,-0.01611328125,0.01318359375,-3.1092703160452654e-06,0.0018245587399550811,-3.1049574492881797e-06,0.001636522865919705,1.3392650123963663,1.3407641066865423
1624633602.530193,-3.143251997925021e-09,-1.9200432183045805e-10,5.88,4.99,3.856590410578065e-06,-3.587525861803442e-05,1.3414634466171265,-0.01611328125,0.01318359375,-3.1092703160452654e-06,0.0018245587399550811,-3.1049574492881797e-06,0.001636522865919705,1.3392650123963663,1.3407641066865423
1624633602.530193,-3.143251997925021e-09,-1.9200432183045805e-10,5.88,4.99,3.856590410578065e-06,-3.587525861803442e-05,1.3414634466171265,-0.01611328125,0.01318359375,-3.1092703160452654e-06,0.0018245587399550811,-3.1049574492881797e-06,0.001636522865919705,1.3392650123963663,1.3407641066865423
1624633602.596193,-1.8888874387735193e-09,-1.4724707238560314e-10,5.88,4.99,3.856590410578065e-06,-3.587525861803442e-05,1.3414634466171265,-0.01611328125,0.01318359375,-3.0892849978198516e-06,0.001948352137855091,-3.102776454998649e-06,0.0017343309888814753,1.3392805061793442,1.3408020634825306
1624633602.596193,-1.8888874387735193e-09,-1.4724707238560314e-10,5.88,4.99,3.856590410578065e-06,-3.587525861803442e-05,1.3414634466171265,-0.01611328125,0.01318359375,-3.0892849978198516e-06,0.001948352137855091,-3.102776454998649e-06,0.0017343309888814753,1.3392805061793442,1.3408020634825306
1624633602.596193,-1.8888874387735193e-09,-1.4724707238560314e-10,5.88,4.99,3.856590410578065e-06,-3.587525861803442e-05,1.3414634466171265,-0.01611328125,0.01318359375,-3.0892849978198516e-06,0.001948352137855091,-3.102776454998649e-06,0.0017343309888814753,1.3392805061793442,1.3408020634825306
1624633602.596193,-1.8888874387735193e-09,-1.4724707238560314e-10,5.88,4.99,3.856590410578065e-06,-3.587525861803442e-05,1.3414634466171265,-0.01611328125,0.01318359375,-3.0892849978198516e-06,0.001948352137855091,-3.102776454998649e-06,0.0017343309888814753,1.3392805061793442,1.3408020634825306
1624633602.596193,-1.8888874387735193e-09,-1.4724707238560314e-10,5.88,4.99,3.856590410578065e-06,-3.587525861803442e-05,1.3414634466171265,-0.01611328125,0.01318359375,-3.1251940904492384e-06,0.0018468071721969947,-3.102776454998649e-06,0.0017343309888814753,1.3392654904821333,1.3408020634825306
1624633602.64596,-3.6786835126484604e-09,-3.8767212417850695e-10,5.88,4.99,3.856590410578065e-06,-3.587525861803442e-05,1.3414634466171265,-0.01611328125,0.01318359375,-3.1251940904492384e-06,0.0018468071721969947,-3.1062749032144644e-06,0.0017231931092127045,1.3392654904821333,1.3407999294272566
1624633602.64596,-3.6786835126484604e-09,-3.8767212417850695e-10,5.88,4.99,3.856590410578065e-06,-3.587525861803442e-05,1.3414634466171265,-0.01611328125,0.01318359375,-3.1251940904492384e-06,0.0018468071721969947,-3.1062749032144644e-06,0.0017231931092127045,1.3392654904821333,1.3407999294272566
1624633602.64596,-3.6786835126484604e-09,-3.8767212417850695e-10,5.88,4.99,3.7647666886186926e-06,-3.502108665998094e-05,1.402438998222351,-0.0048828125,0.0009765625,-3.1251940904492384e-06,0.0018468071721969947,-3.1062749032144644e-06,0.0017231931092127045,1.3392654904821333,1.3407999294272566
1624633602.64596,-3.6786835126484604e-09,-3.8767212417850695e-10,5.86,5.01,3.7647666886186926e-06,-3.502108665998094e-05,1.402438998222351,-0.0048828125,0.0009765625,-3.1251940904492384e-06,0.0018468071721969947,-3.1062749032144644e-06,0.0017231931092127045,1.3392654904821333,1.3407999294272566
1624633602.64596,-3.6786835126484604e-09,-3.8767212417850695e-10,5.86,5.01,3.7647666886186926e-06,-3.502108665998094e-05,1.402438998222351,-0.0048828125,0.0009765625,-3.128964152471705e-06,0.0019509402661044876,-3.1062749032144644e-06,0.0017231931092127045,1.3392701370286961,1.3407999294272566
1624633602.70596,-5.537642829666546e-09,-7.202642304371889e-10,5.86,5.01,3.7647666886186926e-06,-3.502108665998094e-05,1.402438998222351,-0.0048828125,0.0009765625,-3.128964152471705e-06,0.0019509402661044876,-3.110032086518309e-06,0.0017675744898703214,1.3392701370286961,1.3408184475044782
1624633602.70596,-5.537642829666546e-09,-7.202642304371889e-10,5.86,5.01,3.7647666886186926e-06,-3.502108665998094e-05,1.402438998222351,-0.0048828125,0.0009765625,-3.128964152471705e-06,0.0019509402661044876,-3.110032086518309e-06,0.0017675744898703214,1.3392701370286961,1.3408184475044782
1624633602.70596,-5.537642829666546e-09,-7.202642304371889e-10,5.86,5.01,3.7647666886186926e-06,-3.502108665998094e-05,1.402438998222351,-0.0048828125,0.0009765625,-3.128964152471705e-06,0.0019509402661044876,-3.110032086518309e-06,0.0017675744898703214,1.3392701370286961,1.3408184475044782
1624633602.70596,-5.537642829666546e-09,-7.202642304371889e-10,5.86,5.01,3.953005034418311e-06,-3.6772140447283164e-05,1.402438998222351,-0.0048828125,0.0009765625,-3.128964152471705e-06,0.0019509402661044876,-3.110032086518309e-06,0.0017675744898703214,1.3392701370286961,1.3408184475044782
1624633602.70596,-5.537642829666546e-09,-7.202642304371889e-10,5.86,5.01,3.953005034418311e-06,-3.6772140447283164e-05,1.402438998222351,-0.0048828125,0.0009765625,-3.1281939273096236e-06,0.001828382004999023,-3.110032086518309e-06,0.0017675744898703214,1.3392668895051867,1.3408184475044782
1624633602.7659602,-7.04626033488652e-09,-1.0468562422109446e-09,5.86,5.01,3.953005034418311e-06,-3.6772140447283164e-05,1.402438998222351,-0.0048828125,0.0009765625,-3.1281939273096236e-06,0.001828382004999023,-3.1132370913461376e-06,0.0017248008161252775,1.3392668895051867,1.340832203384995
1624633602.7659602,-7.04626033488652e-09,-1.0468562422109446e-09,5.86,5.01,3.953005034418311e-06,-3.6772140447283164e-05,1.402438998222351,-0.0048828125,0.0009765625,-3.1281939273096236e-06,0.001828382004999023,-3.1132370913461376e-06,0.0017248008161252775,1.3392668895051867,1.340832203384995
1624633602.7659602,-7.04626033488652e-09,-1.0468562422109446e-09,5.85,5.01,3.953005034418311e-06,-3.6772140447283164e-05,1.402438998222351,-0.0146484375,0.00927734375,-3.1281939273096236e-06,0.001828382004999023,-3.1132370913461376e-06,0.0017248008161252775,1.3392668895051867,1.340832203384995
1624633602.7659602,-7.04626033488652e-09,-1.0468562422109446e-09,5.85,5.01,3.953005034418311e-06,-3.6772140447283164e-05,1.402438998222351,-0.0146484375,0.00927734375,-3.1281939273096236e-06,0.001828382004999023,-3.1132370913461376e-06,0.0017248008161252775,1.3392668895051867,1.340832203384995
1624633602.7659602,-7.04626033488652e-09,-1.0468562422109446e-09,5.85,5.01,3.856590410578065e-06,-3.587525861803442e-05,1.402438998222351,-0.0146484375,0.00927734375,-3.129128308760128e-06,0.001722829547563713,-3.1132370913461376e-06,0.0017248008161252775,1.3392633969949037,1.340832203384995
1624633602.8259602,-8.376239700292822e-09,-1.3243524885979886e-09,5.85,5.01,3.856590410578065e-06,-3.587525861803442e-05,1.402438998222351,-0.0146484375,0.00927734375,-3.129128308760128e-06,0.001722829547563713,-3.116196003551648e-06,0.0016555159794931116,1.3392633969949037,1.3408393755945263
1624633602.8259602,-8.376239700292822e-09,-1.3243524885979886e-09,5.85,5.01,3.856590410578065e-06,-3.587525861803442e-05,1.402438998222351,-0.0146484375,0.00927734375,-3.129128308760128e-06,0.001722829547563713,-3.116196003551648e-06,0.0016555159794931116,1.3392633969949037,1.3408393755945263
1624633602.8259602,-8.376239700292822e-09,-1.3243524885979886e-09,5.85,5.01,3.856590410578065e-06,-3.587525861803442e-05,1.402438998222351,-0.0146484375,0.00927734375,-3.129128308760128e-06,0.001722829547563713,-3.116196003551648e-06,0.0016555159794931116,1.3392633969949037,1.3408393755945263
1624633602.8259602,-8.376239700292822e-09,-1.3243524885979886e-09,5.85,5.01,3.856590410578065e-06,-3.587525861803442e-05,1.402438998222351,-0.0146484375,0.00927734375,-3.129128308760128e-06,0.001722829547563713,-3.116196003551648e-06,0.0016555159794931116,1.3392633969949037,1.3408393755945263
1624633602.8259602,-8.376239700292822e-09,-1.3243524885979886e-09,5.85,5.01,3.856590410578065e-06,-3.587525861803442e-05,1.402438998222351,-0.0146484375,0.00927734375,-3.129128308760128e-06,0.001722829547563713,-3.116196003551648e-06,0.0016555159794931116,1.3392633969949037,1.3408393755945263
1624633602.8259602,-9.33154657800509e-09,-1.5237034574254567e-09,5.85,5.01,3.856590410578065e-06,-3.587525861803442e-05,1.402438998222351,-0.0146484375,0.00927734375,-3.129128308760128e-06,0.001722829547563713,-3.11801768820977e-06,0.0016327069803693237,1.3392633969949037,1.3407561056891153
1624633602.8259602,-9.33154657800509e-09,-1.5237034574254567e-09,5.85,5.01,3.856590410578065e-06,-3.587525861803442e-05,1.402438998222351,-0.0087890625,0.0078125,-3.129128308760128e-06,0.001722829547563713,-3.11801768820977e-06,0.0016327069803693237,1.3392633969949037,1.3407561056891153
1624633602.8259602,-9.33154657800509e-09,-1.5237034574254567e-09,5.85,5.01,3.856590410578065e-06,-3.587525861803442e-05,1.402438998222351,-0.0087890625,0.0078125,-3.129128308760128e-06,0.001722829547563713,-3.11801768820977e-06,0.0016327069803693237,1.3392633969949037,1.3407561056891153
1624633602.8259602,-9.33154657800509e-09,-1.5237034574254567e-09,5.85,5.01,3.856590410578065e-06,-3.587525861803442e-05,1.402438998222351,-0.0087890625,0.0078125,-3.129128308760128e-06,0.001722829547563713,-3.11801768820977e-06,0.0016327069803693237,1.3392633969949037,1.3407561056891153
1624633602.8259602,-9.33154657800509e-09,-1.5237034574254567e-09,5.85,5.01,3.856590410578065e-06,-3.587525861803442e-05,1.402438998222351,-0.0087890625,0.0078125,-3.0697655172005596e-06,0.0019132662759119897,-3.11801768820977e-06,0.0016327069803693237,1.3393016187369564,1.3407561056891153
1624633602.9039602,-5.387734281360595e-09,-1.6915305772238623e-09,5.85,5.01,3.856590410578065e-06,-3.587525861803442e-05,1.402438998222351,-0.0087890625,0.0078125,-3.0697655172005596e-06,0.0019132662759119897,-3.111231178356706e-06,0.0017197471291209691,1.3393016187369564,1.340826318294244
1624633602.9039602,-5.387734281360595e-09,-1.6915305772238623e-09,5.85,5.01,3.856590410578065e-06,-3.587525861803442e-05,1.402438998222351,-0.0087890625,0.0078125,-3.0697655172005596e-06,0.0019132662759119897,-3.111231178356706e-06,0.0017197471291209691,1.3393016187369564,1.340826318294244
1624633602.9039602,-5.387734281360595e-09,-1.6915305772238623e-09,5.85,5.01,3.856590410578065e-06,-3.587525861803442e-05,1.402438998222351,-0.0087890625,0.0078125,-3.0697655172005596e-06,0.0019132662759119897,-3.111231178356706e-06,0.0017197471291209691,1.3393016187369564,1.340826318294244
1624633602.9039602,-5.387734281360595e-09,-1.6915305772238623e-09,5.85,5.01,3.856590410578065e-06,-3.587525861803442e-05,1.402438998222351,-0.0087890625,0.0078125,-3.0697655172005596e-06,0.0019132662759119897,-3.111231178356706e-06,0.0017197471291209691,1.3393016187369564,1.340826318294244
1624633602.9039602,-5.387734281360595e-09,-1.6915305772238623e-09,5.85,5.01,3.856590410578065e-06,-3.587525861803442e-05,1.402438998222351,-0.0087890625,0.0078125,-3.125517542946557e-06,0.0018276367988828038,-3.111231178356706e-06,0.0017197471291209691,1.3392661362142528,1.340826318294244
1624633602.94596,-6.517917917007141e-09,-1.8048381690931665e-09,5.85,5.01,3.856590410578065e-06,-3.587525861803442e-05,1.402438998222351,-0.0087890625,0.0078125,-3.125517542946557e-06,0.0018276367988828038,-3.111231178356706e-06,0.0017197471291209691,1.3392661362142528,1.340826318294244
1624633602.94596,-6.517917917007141e-09,-1.8048381690931665e-09,5.85,5.01,3.856590410578065e-06,-3.587525861803442e-05,1.402438998222351,-0.0087890625,0.0078125,-3.125517542946557e-06,0.0018276367988828038,-3.1136090069238063e-06,0.0017036620042139108,1.3392661362142528,1.3408102624010654
1624633602.94596,-6.517917917007141e-09,-1.8048381690931665e-09,5.84,5.01,3.856590410578065e-06,-3.587525861803442e-05,1.3414634466171265,-0.00537109375,-0.00341796875,-3.125517542946557e-06,0.0018276367988828038,-3.1136090069238063e-06,0.0017036620042139108,1.3392661362142528,1.3408102624010654
1624633602.94596,-6.517917917007141e-09,-1.8048381690931665e-09,5.84,5.01,3.856590410578065e-06,-3.587525861803442e-05,1.3414634466171265,-0.00537109375,-0.00341796875,-3.125517542946557e-06,0.0018276367988828038,-3.1136090069238063e-06,0.0017036620042139108,1.3392661362142528,1.3408102624010654
1624633602.94596,-6.517917917007141e-09,-1.8048381690931665e-09,5.84,5.01,3.856590410578065e-06,-3.587525861803442e-05,1.3414634466171265,-0.00537109375,-0.00341796875,-3.1159771294317956e-06,0.0017693591706562121,-3.1136090069238063e-06,0.0017036620042139108,1.3392674018200725,1.3408102624010654
1624633603.00796,-6.6813222826778385e-09,-1.871856594531234e-09,5.84,5.01,3.856590410578065e-06,-3.587525861803442e-05,1.3414634466171265,-0.00537109375,-0.00341796875,-3.1159771294317956e-06,0.0017693591706562121,-3.1143243338554394e-06,0.0016769881918985152,1.3392674018200725,1.3408284547048588
1624633603.00796,-6.6813222826778385e-09,-1.871856594531234e-09,5.84,5.01,3.856590410578065e-06,-3.587525861803442e-05,1.3414634466171265,-0.00537109375,-0.00341796875,-3.1159771294317956e-06,0.0017693591706562121,-3.1143243338554394e-06,0.0016769881918985152,1.3392674018200725,1.3408284547048588
1624633603.00796,-6.6813222826778385e-09,-1.871856594531234e-09,5.84,5.01,3.856590410578065e-06,-3.587525861803442e-05,1.3414634466171265,-0.00537109375,-0.00341796875,-3.1159771294317956e-06,0.0017693591706562121,-3.1143243338554394e-06,0.0016769881918985152,1.3392674018200725,1.3408284547048588
1624633603.00796,-6.6813222826778385e-09,-1.871856594531234e-09,5.84,5.01,3.856590410578065e-06,-3.587525861803442e-05,1.3414634466171265,-0.00537109375,-0.00341796875,-3.1159771294317956e-06,0.0017693591706562121,-3.1143243338554394e-06,0.0016769881918985152,1.3392674018200725,1.3408284547048588
1624633603.0659602,-7.086595226385239e-09,-1.8952303951520107e-09,5.84,5.01,3.856590410578065e-06,-3.587525861803442e-05,1.3414634466171265,-0.00537109375,-0.00341796875,-3.1194997129479774e-06,0.0016616181363406236,-3.1154842491545894e-06,0.0016049846254185907,1.339259772966722,1.3408300351862679
1624633603.0659602,-7.086595226385239e-09,-1.8952303951520107e-09,5.84,5.01,3.856590410578065e-06,-3.587525861803442e-05,1.402438998222351,-0.01123046875,0.00537109375,-3.1194997129479774e-06,0.0016616181363406236,-3.1154842491545894e-06,0.0016049846254185907,1.339259772966722,1.3408300351862679
1624633603.0659602,-7.086595226385239e-09,-1.8952303951520107e-09,5.85,5.0,3.856590410578065e-06,-3.587525861803442e-05,1.402438998222351,-0.01123046875,0.00537109375,-3.1194997129479774e-06,0.0016616181363406236,-3.1154842491545894e-06,0.0016049846254185907,1.339259772966722,1.3408300351862679
1624633603.0659602,-7.086595226385239e-09,-1.8952303951520107e-09,5.85,5.0,3.856590410578065e-06,-3.587525861803442e-05,1.402438998222351,-0.01123046875,0.00537109375,-3.1194997129479774e-06,0.0016616181363406236,-3.1154842491545894e-06,0.0016049846254185907,1.339259772966722,1.3408300351862679
1624633603.0659602,-7.086595226385239e-09,-1.8952303951520107e-09,5.85,5.0,3.856590410578065e-06,-3.587525861803442e-05,1.402438998222351,-0.01123046875,0.00537109375,-3.1194997129479774e-06,0.0016616181363406236,-3.1154842491545894e-06,0.0016049846254185907,1.339259772966722,1.3408300351862679
1624633603.12596,-7.432488062558155e-09,-1.8802602012406414e-09,5.85,5.0,3.856590410578065e-06,-3.587525861803442e-05,1.402438998222351,-0.01123046875,0.00537109375,-3.119931591253083e-06,0.0014788747429742399,-3.1165695288451055e-06,0.001482536289465666,1.3392528148817011,1.340825191173867
1624633603.12596,-7.432488062558155e-09,-1.8802602012406414e-09,5.85,5.0,3.856590410578065e-06,-3.587525861803442e-05,1.402438998222351,-0.01123046875,0.00537109375,-3.119931591253083e-06,0.0014788747429742399,-3.1165695288451055e-06,0.001482536289465666,1.3392528148817011,1.340825191173867
1624633603.12596,-7.432488062558155e-09,-1.8802602012406414e-09,5.85,5.0,3.856590410578065e-06,-3.587525861803442e-05,1.402438998222351,-0.01123046875,0.00537109375,-3.119931591253083e-06,0.0014788747429742399,-3.1165695288451055e-06,0.001482536289465666,1.3392528148817011,1.340825191173867
1624633603.12596,-7.432488062558155e-09,-1.8802602012406414e-09,5.85,5.0,3.856590410578065e-06,-3.587525861803442e-05,1.402438998222351,-0.01123046875,0.00537109375,-3.119931591253083e-06,0.0014788747429742399,-3.1165695288451055e-06,0.001482536289465666,1.3392528148817011,1.340825191173867
1624633603.12596,-7.432488062558155e-09,-1.8802602012406414e-09,5.85,5.0,3.856590410578065e-06,-3.587525861803442e-05,1.402438998222351,-0.01123046875,0.00537109375,-3.119931591253083e-06,0.0014788747429742399,-3.1165695288451055e-06,0.001482536289465666,1.3392528148817011,1.340825191173867
1624633603.12596,-7.680866795568866e-09,-1.869534898343673e-09,5.85,5.0,3.856590410578065e-06,-3.587525861803442e-05,1.402438998222351,-0.01123046875,0.00537109375,-3.119931591253083e-06,0.0014788747429742399,-3.1170435321210333e-06,0.0014394161556632705,1.3392528148817011,1.3407398977492997
1624633603.12596,-7.680866795568866e-09,-1.869534898343673e-09,5.85,5.0,3.856590410578065e-06,-3.587525861803442e-05,1.402438998222351,-0.01123046875,0.00537109375,-3.119931591253083e-06,0.0014788747429742399,-3.1170435321210333e-06,0.0014394161556632705,1.3392528148817011,1.3407398977492997
1624633603.12596,-7.680866795568866e-09,-1.869534898343673e-09,5.85,4.99,3.856590410578065e-06,-3.587525861803442e-05,1.402438998222351,-0.0126953125,0.01220703125,-3.119931591253083e-06,0.0014788747429742399,-3.1170435321210333e-06,0.0014394161556632705,1.3392528148817011,1.3407398977492997
1624633603.12596,-7.680866795568866e-09,-1.869534898343673e-09,5.85,4.99,3.856590410578065e-06,-3.587525861803442e-05,1.402438998222351,-0.0126953125,0.01220703125,-3.119931591253083e-06,0.0014788747429742399,-3.1170435321210333e-06,0.0014394161556632705,1.3392528148817011,1.3407398977492997
1624633603.12596,-7.680866795568866e-09,-1.869534898343673e-09,5.85,4.99,3.856590410578065e-06,-3.587525861803442e-05,1.402438998222351,-0.0126953125,0.01220703125,-3.119931591253083e-06,0.0014788747429742399,-3.1170435321210333e-06,0.0014394161556632705,1.3392528148817011,1.3407398977492997
1624633603.19596,-5.178135965489589e-09,-1.82810720613484e-09,5.85,4.99,3.856590410578065e-06,-3.587525861803442e-05,1.402438998222351,-0.0126953125,0.01220703125,-3.0860811235539073e-06,0.0016290326774785423,-3.112814112533281e-06,0.0014827235718130726,1.339271197216695,1.3407733075418151
1624633603.19596,-5.178135965489589e-09,-1.82810720613484e-09,5.85,4.99,3.856590410578065e-06,-3.587525861803442e-05,1.402438998222351,-0.0126953125,0.01220703125,-3.0860811235539073e-06,0.0016290326774785423,-3.112814112533281e-06,0.0014827235718130726,1.339271197216695,1.3407733075418151
1624633603.19596,-5.178135965489589e-09,-1.82810720613484e-09,5.85,4.99,3.856590410578065e-06,-3.587525861803442e-05,1.402438998222351,-0.0126953125,0.01220703125,-3.0860811235539073e-06,0.0016290326774785423,-3.112814112533281e-06,0.0014827235718130726,1.339271197216695,1.3407733075418151
1624633603.19596,-5.178135965489589e-09,-1.82810720613484e-09,5.85,4.99,3.856590410578065e-06,-3.587525861803442e-05,1.402438998222351,-0.0126953125,0.01220703125,-3.0860811235539073e-06,0.0016290326774785423,-3.112814112533281e-06,0.0014827235718130726,1.339271197216695,1.3407733075418151
1624633603.19596,-5.178135965489589e-09,-1.82810720613484e-09,5.85,4.99,3.856590410578065e-06,-3.587525861803442e-05,1.402438998222351,-0.0126953125,0.01220703125,-3.0860811235539073e-06,0.0016290326774785423,-3.112814112533281e-06,0.0014827235718130726,1.339271197216695,1.3407733075418151
1624633603.24596,-5.459730214305521e-09,-1.7619701698572435e-09,5.85,4.99,3.856590410578065e-06,-3.587525861803442e-05,1.402438998222351,-0.0126953125,0.01220703125,-3.116559019581663e-06,0.001543205861509676,-3.1136089983516376e-06,0.0014511725722298032,1.339253015473658,1.3407602708264603
1624633603.24596,-5.459730214305521e-09,-1.7619701698572435e-09,5.85,4.99,3.856590410578065e-06,-3.587525861803442e-05,1.402438998222351,-0.0126953125,0.01220703125,-3.116559019581663e-06,0.001543205861509676,-3.1136089983516376e-06,0.0014511725722298032,1.339253015473658,1.3407602708264603
1624633603.24596,-5.459730214305521e-09,-1.7619701698572435e-09,5.86,5.0,3.856590410578065e-06,-3.587525861803442e-05,1.3414634466171265,-0.01513671875,0.0009765625,-3.116559019581663e-06,0.001543205861509676,-3.1136089983516376e-06,0.0014511725722298032,1.339253015473658,1.3407602708264603
1624633603.24596,-5.459730214305521e-09,-1.7619701698572435e-09,5.86,5.0,3.856590410578065e-06,-3.587525861803442e-05,1.3414634466171265,-0.01513671875,0.0009765625,-3.116559019581663e-06,0.001543205861509676,-3.1136089983516376e-06,0.0014511725722298032,1.339253015473658,1.3407602708264603
1624633603.24596,-5.459730214305521e-09,-1.7619701698572435e-09,5.86,5.0,3.856590410578065e-06,-3.587525861803442e-05,1.3414634466171265,-0.01513671875,0.0009765625,-3.116559019581663e-06,0.001543205861509676,-3.1136089983516376e-06,0.0014511725722298032,1.339253015473658,1.3407602708264603
1624633603.3059602,-5.582030716976006e-09,-1.6739344006331575e-09,5.86,5.0,3.856590410578065e-06,-3.587525861803442e-05,1.3414634466171265,-0.01513671875,0.0009765625,-3.115405809988983e-06,0.0018611947662261165,-3.1141694615839384e-06,0.0015738843044196303,1.3392628283807622,1.3407698168804032
1624633603.3059602,-5.582030716976006e-09,-1.6739344006331575e-09,5.86,5.0,3.856590410578065e-06,-3.587525861803442e-05,1.3414634466171265,-0.01513671875,0.0009765625,-3.115405809988983e-06,0.0018611947662261165,-3.1141694615839384e-06,0.0015738843044196303,1.3392628283807622,1.3407698168804032
1624633603.3059602,-5.582030716976006e-09,-1.6739344006331575e-09,5.86,5.0,3.856590410578065e-06,-3.587525861803442e-05,1.3414634466171265,-0.01513671875,0.0009765625,-3.115405809988983e-06,0.0018611947662261165,-3.1141694615839384e-06,0.0015738843044196303,1.3392628283807622,1.3407698168804032
1624633603.3059602,-5.582030716976006e-09,-1.6739344006331575e-09,5.86,5.0,3.856590410578065e-06,-3.587525861803442e-05,1.3414634466171265,-0.01513671875,0.0009765625,-3.115405809988983e-06,0.0018611947662261165,-3.1141694615839384e-06,0.0015738843044196303,1.3392628283807622,1.3407698168804032
1624633603.3059602,-5.582030716976006e-09,-1.6739344006331575e-09,5.86,5.0,3.856590410578065e-06,-3.587525861803442e-05,1.3414634466171265,-0.01513671875,0.0009765625,-3.115405809988983e-06,0.0018611947662261165,-3.1141694615839384e-06,0.0015738843044196303,1.3392628283807622,1.3407698168804032
1624633603.3659601,0.00200039533134243,-1.5368904510164883e-09,5.86,5.0,3.856590410578065e-06,-3.587525861803442e-05,1.3414634466171265,-0.01513671875,0.0009765625,0.023548287895272583,0.00174419204405621,0.0038088795285026733,0.0015707908202113375,1.3392613990494187,1.3407767376669182
1624633603.3659601,0.00200039533134243,-1.5368904510164883e-09,5.86,5.0,3.856590410578065e-06,-3.587525861803442e-05,1.3414634466171265,-0.01513671875,0.0009765625,0.023548287895272583,0.00174419204405621,0.0038088795285026733,0.0015707908202113375,1.3392613990494187,1.3407767376669182
1624633603.3659601,0.00200039533134243,-1.5368904510164883e-09,5.85,5.0,3.856590410578065e-06,-3.587525861803442e-05,1.402438998222351,-0.01904296875,0.00439453125,0.023548287895272583,0.00174419204405621,0.0038088795285026733,0.0015707908202113375,1.3392613990494187,1.3407767376669182
1624633603.3659601,0.00200039533134243,-1.5368904510164883e-09,5.85,5.0,0.007653378881514072,-0.0011256870348006487,1.402438998222351,-0.01904296875,0.00439453125,0.023548287895272583,0.00174419204405621,0.0038088795285026733,0.0015707908202113375,1.3392613990494187,1.3407767376669182
1624633603.3659601,0.00200039533134243,-1.5368904510164883e-09,5.85,5.0,0.007653378881514072,-0.0011256870348006487,1.402438998222351,-0.01904296875,0.00439453125,0.04475256934712104,0.0018110396749101182,0.0038088795285026733,0.0015707908202113375,1.339251952346506,1.3407767376669182
1624633603.42596,0.005519311789011478,5.584222561279915e-11,5.85,5.0,0.007653378881514072,-0.0011256870348006487,1.402438998222351,-0.01904296875,0.00439453125,0.04475256934712104,0.0018110396749101182,0.010643976837204604,0.0016057984337200203,1.339251952346506,1.3407839423416816
1624633603.42596,0.005519311789011478,5.584222561279915e-11,5.85,5.0,0.007653378881514072,-0.0011256870348006487,1.402438998222351,-0.01904296875,0.00439453125,0.04475256934712104,0.0018110396749101182,0.010643976837204604,0.0016057984337200203,1.339251952346506,1.3407839423416816
1624633603.42596,0.005519311789011478,5.584222561279915e-11,5.85,5.0,0.007653378881514072,-0.0011256870348006487,1.402438998222351,-0.01904296875,0.00439453125,0.04475256934712104,0.0018110396749101182,0.010643976837204604,0.0016057984337200203,1.339251952346506,1.3407839423416816
1624633603.42596,0.005519311789011478,5.584222561279915e-11,5.85,5.0,0.007653378881514072,-0.0011256870348006487,1.402438998222351,-0.01904296875,0.00439453125,0.04475256934712104,0.0018110396749101182,0.010643976837204604,0.0016057984337200203,1.339251952346506,1.3407839423416816
1624633603.42596,0.005519311789011478,5.584222561279915e-11,5.85,5.0,0.007653378881514072,-0.0011256870348006487,1.402438998222351,-0.01904296875,0.00439453125,0.04475256934712104,0.0018110396749101182,0.010643976837204604,0.0016057984337200203,1.339251952346506,1.3407839423416816
1624633603.42596,0.008044100787235857,1.1554358396523564e-09,5.85,5.0,0.007653378881514072,-0.0011256870348006487,1.402438998222351,-0.01904296875,0.00439453125,0.04475256934712104,0.0018110396749101182,0.015461978177171294,0.001624698714012675,1.339251952346506,1.3407049441493128
1624633603.42596,0.008044100787235857,1.1554358396523564e-09,5.85,5.0,0.05643334239721298,0.01631130278110504,1.402438998222351,-0.01904296875,0.00439453125,0.04475256934712104,0.0018110396749101182,0.015461978177171294,0.001624698714012675,1.339251952346506,1.3407049441493128
1624633603.42596,0.008044100787235857,1.1554358396523564e-09,5.85,4.99,0.05643334239721298,0.01631130278110504,1.402438998222351,-0.01904296875,0.00439453125,0.04475256934712104,0.0018110396749101182,0.015461978177171294,0.001624698714012675,1.339251952346506,1.3407049441493128
1624633603.42596,0.008044100787235857,1.1554358396523564e-09,5.85,4.99,0.05643334239721298,0.01631130278110504,2.1341464519500732,-0.00634765625,-0.13671875,0.04475256934712104,0.0018110396749101182,0.015461978177171294,0.001624698714012675,1.339251952346506,1.3407049441493128
1624633603.42596,0.008044100787235857,1.1554358396523564e-09,5.85,4.99,0.05643334239721298,0.01631130278110504,2.1341464519500732,-0.00634765625,-0.13671875,0.04475256934712104,0.0018110396749101182,0.015461978177171294,0.001624698714012675,1.339251952346506,1.3407049441493128
1624633603.50796,0.012658696891047665,1.025287137594469e-08,5.85,4.99,0.05643334239721298,0.01631130278110504,2.1341464519500732,-0.00634765625,-0.13671875,0.07299560941586514,0.003172429944370043,0.02492434130739856,0.00228536750799782,1.3395484808029494,1.340828434759215
1624633603.50796,0.012658696891047665,1.025287137594469e-08,5.85,4.99,0.16084471344947815,-0.001153829274699092,2.1341464519500732,-0.00634765625,-0.13671875,0.07299560941586514,0.003172429944370043,0.02492434130739856,0.00228536750799782,1.3395484808029494,1.340828434759215
1624633603.50796,0.012658696891047665,1.025287137594469e-08,5.85,4.99,0.16084471344947815,-0.001153829274699092,2.1341464519500732,-0.00634765625,-0.13671875,0.07299560941586514,0.003172429944370043,0.02492434130739856,0.00228536750799782,1.3395484808029494,1.340828434759215
1624633603.50796,0.012658696891047665,1.025287137594469e-08,5.85,4.99,0.16084471344947815,-0.001153829274699092,2.1341464519500732,-0.00634765625,-0.13671875,0.07299560941586514,0.003172429944370043,0.02492434130739856,0.00228536750799782,1.3395484808029494,1.340828434759215
1624633603.50796,0.012658696891047665,1.025287137594469e-08,5.85,4.99,0.16084471344947815,-0.001153829274699092,2.1341464519500732,-0.00634765625,-0.13671875,0.07299560941586514,0.003172429944370043,0.02492434130739856,0.00228536750799782,1.3395484808029494,1.340828434759215
1624633603.5459602,0.017622648240472976,-5.114014517147211e-08,5.85,4.99,0.16084471344947815,-0.001153829274699092,2.1341464519500732,-0.00634765625,-0.13671875,0.08727232157615568,0.003038485601825918,0.034865285062472794,0.0025002247052969824,1.3393782134429078,1.3408440497691207
1624633603.5459602,0.017622648240472976,-5.114014517147211e-08,5.85,4.99,0.16084471344947815,-0.001153829274699092,0.3658536672592163,-0.3056640625,-0.32861328125,0.08727232157615568,0.003038485601825918,0.034865285062472794,0.0025002247052969824,1.3393782134429078,1.3408440497691207
1624633603.5459602,0.017622648240472976,-5.114014517147211e-08,5.84,4.98,0.26478344202041626,-0.017471088096499443,0.3658536672592163,-0.3056640625,-0.32861328125,0.08727232157615568,0.003038485601825918,0.034865285062472794,0.0025002247052969824,1.3393782134429078,1.3408440497691207
1624633603.5459602,0.017622648240472976,-5.114014517147211e-08,5.84,4.98,0.26478344202041626,-0.017471088096499443,0.3658536672592163,-0.3056640625,-0.32861328125,0.08727232157615568,0.003038485601825918,0.034865285062472794,0.0025002247052969824,1.3393782134429078,1.3408440497691207
1624633603.5459602,0.017622648240472976,-5.114014517147211e-08,5.84,4.98,0.26478344202041626,-0.017471088096499443,0.3658536672592163,-0.3056640625,-0.32861328125,0.08727232157615568,0.003038485601825918,0.034865285062472794,0.0025002247052969824,1.3393782134429078,1.3408440497691207
1624633603.6059601,0.0219448383736438,-1.20832962151204e-07,5.84,4.98,0.26478344202041626,-0.017471088096499443,0.3658536672592163,-0.3056640625,-0.32861328125,0.08811485442460065,0.006593635768920409,0.044158393491396504,0.004262167124397545,1.3394700694571646,1.3410199998770207
1624633603.6059601,0.0219448383736438,-1.20832962151204e-07,5.84,4.98,0.26478344202041626,-0.017471088096499443,0.3658536672592163,-0.3056640625,-0.32861328125,0.08811485442460065,0.006593635768920409,0.044158393491396504,0.004262167124397545,1.3394700694571646,1.3410199998770207
1624633603.6059601,0.0219448383736438,-1.20832962151204e-07,5.84,4.98,0.26478344202041626,-0.017471088096499443,0.3658536672592163,-0.3056640625,-0.32861328125,0.08811485442460065,0.006593635768920409,0.044158393491396504,0.004262167124397545,1.3394700694571646,1.3410199998770207
1624633603.6059601,0.0219448383736438,-1.20832962151204e-07,5.84,4.98,0.37412336468696594,0.018504388630390167,0.3658536672592163,-0.3056640625,-0.32861328125,0.08811485442460065,0.006593635768920409,0.044158393491396504,0.004262167124397545,1.3394700694571646,1.3410199998770207
1624633603.6059601,0.0219448383736438,-1.20832962151204e-07,5.84,4.98,0.37412336468696594,0.018504388630390167,0.3658536672592163,-0.3056640625,-0.32861328125,0.09497547565536527,0.006198341109764712,0.044158393491396504,0.004262167124397545,1.3398487272062456,1.3410199998770207
1624633603.66596,0.02613555175643805,-5.5296481422764865e-09,5.84,4.98,0.37412336468696594,0.018504388630390167,0.3658536672592163,-0.3056640625,-0.32861328125,0.09497547565536527,0.006198341109764712,0.05346602124474737,0.004923621031077034,1.3398487272062456,1.3412341200012226
1624633603.66596,0.02613555175643805,-5.5296481422764865e-09,5.84,4.98,0.37412336468696594,0.018504388630390167,0.3658536672592163,-0.3056640625,-0.32861328125,0.09497547565536527,0.006198341109764712,0.05346602124474737,0.004923621031077034,1.3398487272062456,1.3412341200012226
1624633603.66596,0.02613555175643805,-5.5296481422764865e-09,5.84,4.97,0.37412336468696594,0.018504388630390167,1.3414634466171265,-0.0029296875,-0.44775390625,0.09497547565536527,0.006198341109764712,0.05346602124474737,0.004923621031077034,1.3398487272062456,1.3412341200012226
1624633603.66596,0.02613555175643805,-5.5296481422764865e-09,5.84,4.97,0.37412336468696594,0.018504388630390167,1.3414634466171265,-0.0029296875,-0.44775390625,0.09497547565536527,0.006198341109764712,0.05346602124474737,0.004923621031077034,1.3398487272062456,1.3412341200012226
1624633603.66596,0.02613555175643805,-5.5296481422764865e-09,5.84,4.97,0.4721081256866455,-0.0174005925655365,1.3414634466171265,-0.0029296875,-0.44775390625,0.09497547565536527,0.006198341109764712,0.05346602124474737,0.004923621031077034,1.3398487272062456,1.3412341200012226
1624633603.72596,0.03067989779975782,7.381317769170336e-07,5.84,4.97,0.4721081256866455,-0.0174005925655365,1.3414634466171265,-0.0029296875,-0.44775390625,0.10787615874165062,0.007871806413906564,0.06370965720390478,0.006117962785884293,1.34025402754516,1.3415313797017216
1624633603.72596,0.03067989779975782,7.381317769170336e-07,5.84,4.97,0.4721081256866455,-0.0174005925655365,1.3414634466171265,-0.0029296875,-0.44775390625,0.10787615874165062,0.007871806413906564,0.06370965720390478,0.006117962785884293,1.34025402754516,1.3415313797017216
1624633603.72596,0.03067989779975782,7.381317769170336e-07,5.84,4.97,0.4721081256866455,-0.0174005925655365,1.3414634466171265,-0.0029296875,-0.44775390625,0.10787615874165062,0.007871806413906564,0.06370965720390478,0.006117962785884293,1.34025402754516,1.3415313797017216
1624633603.72596,0.03067989779975782,7.381317769170336e-07,5.84,4.97,0.4721081256866455,-0.0174005925655365,1.3414634466171265,-0.0029296875,-0.44775390625,0.10787615874165062,0.007871806413906564,0.06370965720390478,0.006117962785884293,1.34025402754516,1.3415313797017216
1624633603.72596,0.03067989779975782,7.381317769170336e-07,5.84,4.97,0.4721081256866455,-0.0174005925655365,1.3414634466171265,-0.0029296875,-0.44775390625,0.10787615874165062,0.007871806413906564,0.06370965720390478,0.006117962785884293,1.34025402754516,1.3415313797017216
1624633603.72596,0.033942511416064546,1.2750985726571872e-06,5.84,4.97,0.5311684608459473,-0.015222745016217232,1.3414634466171265,-0.0029296875,-0.44775390625,0.10787615874165062,0.007871806413906564,0.06370965720390478,0.006117962785884293,1.34025402754516,1.3415313797017216
1624633603.72596,0.033942511416064546,1.2750985726571872e-06,5.84,4.97,0.5311684608459473,-0.015222745016217232,1.3414634466171265,-0.0029296875,-0.44775390625,0.10787615874165062,0.007871806413906564,0.0699382362663829,0.006603979782333362,1.34025402754516,1.3414874845318614
1624633603.72596,0.033942511416064546,1.2750985726571872e-06,5.85,4.96,0.5311684608459473,-0.015222745016217232,2.987804889678955,0.203125,-0.28857421875,0.10787615874165062,0.007871806413906564,0.0699382362663829,0.006603979782333362,1.34025402754516,1.3414874845318614
1624633603.72596,0.033942511416064546,1.2750985726571872e-06,5.85,4.96,0.5311684608459473,-0.015222745016217232,2.987804889678955,0.203125,-0.28857421875,0.10787615874165062,0.007871806413906564,0.0699382362663829,0.006603979782333362,1.34025402754516,1.3414874845318614
1624633603.72596,0.033942511416064546,1.2750985726571872e-06,5.85,4.96,0.5311684608459473,-0.015222745016217232,2.987804889678955,0.203125,-0.28857421875,0.12312849038094523,0.007307898946766056,0.0699382362663829,0.006603979782333362,1.3403261659315073,1.3414874845318614
1624633603.7999601,0.03799621618319664,1.8054936725793053e-06,5.85,4.96,0.5311684608459473,-0.015222745016217232,2.987804889678955,0.203125,-0.28857421875,0.12312849038094523,0.007307898946766056,0.08017728780066252,0.006871079619353985,1.3403261659315073,1.341906097014175
1624633603.7999601,0.03799621618319664,1.8054936725793053e-06,5.85,4.96,0.5433483123779297,-0.015222745016217232,2.987804889678955,0.203125,-0.28857421875,0.12312849038094523,0.007307898946766056,0.08017728780066252,0.006871079619353985,1.3403261659315073,1.341906097014175
1624633603.7999601,0.03799621618319664,1.8054936725793053e-06,5.85,4.96,0.5433483123779297,-0.015222745016217232,2.987804889678955,0.203125,-0.28857421875,0.12312849038094523,0.007307898946766056,0.08017728780066252,0.006871079619353985,1.3403261659315073,1.341906097014175
1624633603.7999601,0.03799621618319664,1.8054936725793053e-06,5.85,4.96,0.5433483123779297,-0.015222745016217232,2.987804889678955,0.203125,-0.28857421875,0.12312849038094523,0.007307898946766056,0.08017728780066252,0.006871079619353985,1.3403261659315073,1.341906097014175
1624633603.7999601,0.03799621618319664,1.8054936725793053e-06,5.85,4.96,0.5433483123779297,-0.015222745016217232,2.987804889678955,0.203125,-0.28857421875,0.14344364093390907,0.006950778233605727,0.08017728780066252,0.006871079619353985,1.3402005803957628,1.341906097014175
1624633603.8459601,0.04295253877827611,1.8272817009132228e-06,5.85,4.96,0.5433483123779297,-0.015222745016217232,2.987804889678955,0.203125,-0.28857421875,0.14344364093390907,0.006950778233605727,0.09136383262950751,0.006833182552823239,1.3402005803957628,1.3420773506442785
1624633603.8459601,0.04295253877827611,1.8272817009132228e-06,5.85,4.96,0.5274170637130737,-0.016369588673114777,2.987804889678955,0.203125,-0.28857421875,0.14344364093390907,0.006950778233605727,0.09136383262950751,0.006833182552823239,1.3402005803957628,1.3420773506442785
1624633603.8459601,0.04295253877827611,1.8272817009132228e-06,5.85,4.95,0.5274170637130737,-0.016369588673114777,3.5975611209869385,-0.30615234375,0.43701171875,0.14344364093390907,0.006950778233605727,0.09136383262950751,0.006833182552823239,1.3402005803957628,1.3420773506442785
1624633603.8459601,0.04295253877827611,1.8272817009132228e-06,5.85,4.95,0.5274170637130737,-0.016369588673114777,3.5975611209869385,-0.30615234375,0.43701171875,0.14344364093390907,0.006950778233605727,0.09136383262950751,0.006833182552823239,1.3402005803957628,1.3420773506442785
1624633603.8459601,0.04295253877827611,1.8272817009132228e-06,5.85,4.95,0.5274170637130737,-0.016369588673114777,3.5975611209869385,-0.30615234375,0.43701171875,0.16111347594132597,-0.0007279359224153507,0.09136383262950751,0.006833182552823239,1.3395566340570335,1.3420773506442785
1624633603.90596,0.04853063898916998,5.321037070088918e-07,5.85,4.95,0.5274170637130737,-0.016369588673114777,3.5975611209869385,-0.30615234375,0.43701171875,0.16111347594132597,-0.0007279359224153507,0.1045646580531638,0.003420750133801508,1.3395566340570335,1.342046501192761
1624633603.90596,0.04853063898916998,5.321037070088918e-07,5.85,4.95,0.5274170637130737,-0.016369588673114777,3.5975611209869385,-0.30615234375,0.43701171875,0.16111347594132597,-0.0007279359224153507,0.1045646580531638,0.003420750133801508,1.3395566340570335,1.342046501192761
1624633603.90596,0.04853063898916998,5.321037070088918e-07,5.85,4.95,0.5274170637130737,-0.016369588673114777,3.5975611209869385,-0.30615234375,0.43701171875,0.16111347594132597,-0.0007279359224153507,0.1045646580531638,0.003420750133801508,1.3395566340570335,1.342046501192761
1624633603.90596,0.04853063898916998,5.321037070088918e-07,5.85,4.95,0.5015420913696289,-0.0010207551531493664,3.5975611209869385,-0.30615234375,0.43701171875,0.16111347594132597,-0.0007279359224153507,0.1045646580531638,0.003420750133801508,1.3395566340570335,1.342046501192761
1624633603.90596,0.04853063898916998,5.321037070088918e-07,5.85,4.95,0.5015420913696289,-0.0010207551531493664,3.5975611209869385,-0.30615234375,0.43701171875,0.17645080531217075,-0.0007125828495847965,0.1045646580531638,0.003420750133801508,1.3389448026535125,1.342046501192761
1624633603.96596,0.05438109214516815,-2.4597546232673774e-06,5.85,4.95,0.5015420913696289,-0.0010207551531493664,3.5975611209869385,-0.30615234375,0.43701171875,0.17645080531217075,-0.0007125828495847965,0.1045646580531638,0.003420750133801508,1.3389448026535125,1.342046501192761
1624633603.96596,0.05438109214516815,-2.4597546232673774e-06,5.85,4.95,0.5015420913696289,-0.0010207551531493664,3.5975611209869385,-0.30615234375,0.43701171875,0.17645080531217075,-0.0007125828495847965,0.1186285685958261,0.0017765150504748459,1.3389448026535125,1.3418601567598425
1624633603.96596,0.05438109214516815,-2.4597546232673774e-06,5.85,4.91,0.5015420913696289,-0.0010207551531493664,-0.060975611209869385,0.146484375,0.005859375,0.17645080531217075,-0.0007125828495847965,0.1186285685958261,0.0017765150504748459,1.3389448026535125,1.3418601567598425
1624633603.96596,0.05438109214516815,-2.4597546232673774e-06,5.85,4.91,0.5015420913696289,-0.0010207551531493664,-0.060975611209869385,0.146484375,0.005859375,0.17645080531217075,-0.0007125828495847965,0.1186285685958261,0.0017765150504748459,1.3389448026535125,1.3418601567598425
1624633603.96596,0.05438109214516815,-2.4597546232673774e-06,5.85,4.91,0.4940796494483948,-0.0010456516174599528,-0.060975611209869385,0.146484375,0.005859375,0.18932057451204704,0.005727434551440569,0.1186285685958261,0.0017765150504748459,1.3389020307983004,1.3418601567598425
1624633604.0259602,0.060187277171317236,-6.391154863028373e-06,5.85,4.91,0.4940796494483948,-0.0010456516174599528,-0.060975611209869385,0.146484375,0.005859375,0.18932057451204704,0.005727434551440569,0.1329734528789219,0.0033621061553056365,1.3389020307983004,1.3417686408909886
1624633604.0259602,0.060187277171317236,-6.391154863028373e-06,5.85,4.91,0.4940796494483948,-0.0010456516174599528,-0.060975611209869385,0.146484375,0.005859375,0.18932057451204704,0.005727434551440569,0.1329734528789219,0.0033621061553056365,1.3389020307983004,1.3417686408909886
1624633604.0259602,0.060187277171317236,-6.391154863028373e-06,5.85,4.91,0.4940796494483948,-0.0010456516174599528,-0.060975611209869385,0.146484375,0.005859375,0.18932057451204704,0.005727434551440569,0.1329734528789219,0.0033621061553056365,1.3389020307983004,1.3417686408909886
1624633604.0259602,0.060187277171317236,-6.391154863028373e-06,5.85,4.91,0.4940796494483948,-0.0010456516174599528,-0.060975611209869385,0.146484375,0.005859375,0.18932057451204704,0.005727434551440569,0.1329734528789219,0.0033621061553056365,1.3389020307983004,1.3417686408909886
1624633604.0259602,0.060187277171317236,-6.391154863028373e-06,5.85,4.91,0.4940796494483948,-0.0010456516174599528,-0.060975611209869385,0.146484375,0.005859375,0.18932057451204704,0.005727434551440569,0.1329734528789219,0.0033621061553056365,1.3389020307983004,1.3417686408909886
1624633604.0259602,0.06435435226543884,-9.206518809939543e-06,5.85,4.91,0.4975944757461548,0.03165047988295555,2.0731706619262695,0.21484375,-0.6474609375,0.18932057451204704,0.005727434551440569,0.1329734528789219,0.0033621061553056365,1.3389020307983004,1.3417686408909886
1624633604.0259602,0.06435435226543884,-9.206518809939543e-06,5.85,4.87,0.4975944757461548,0.03165047988295555,2.0731706619262695,0.21484375,-0.6474609375,0.18932057451204704,0.005727434551440569,0.1329734528789219,0.0033621061553056365,1.3389020307983004,1.3417686408909886
1624633604.0259602,0.06435435226543884,-9.206518809939543e-06,5.85,4.87,0.4975944757461548,0.03165047988295555,2.0731706619262695,0.21484375,-0.6474609375,0.18932057451204704,0.005727434551440569,0.1329734528789219,0.0033621061553056365,1.3389020307983004,1.3417686408909886
1624633604.0259602,0.06435435226543884,-9.206518809939543e-06,5.85,4.87,0.4975944757461548,0.03165047988295555,2.0731706619262695,0.21484375,-0.6474609375,0.18932057451204704,0.005727434551440569,0.140926965051644,0.004003618229514738,1.3389020307983004,1.3415499843064402
1624633604.0259602,0.06435435226543884,-9.206518809939543e-06,5.85,4.87,0.4975944757461548,0.03165047988295555,2.0731706619262695,0.21484375,-0.6474609375,0.19873728367371912,0.012449916307367359,0.140926965051644,0.004003618229514738,1.3396673293078374,1.3415499843064402
1624633604.0919602,0.06858445772494604,-1.2026069498903504e-05,5.85,4.87,0.4975944757461548,0.03165047988295555,2.0731706619262695,0.21484375,-0.6474609375,0.19873728367371912,0.012449916307367359,0.140926965051644,0.004003618229514738,1.3396673293078374,1.3415499843064402
1624633604.0919602,0.06858445772494604,-1.2026069498903504e-05,5.85,4.87,0.49205639958381653,-0.017455849796533585,2.0731706619262695,0.21484375,-0.6474609375,0.19873728367371912,0.012449916307367359,0.140926965051644,0.004003618229514738,1.3396673293078374,1.3415499843064402
1624633604.0919602,0.06858445772494604,-1.2026069498903504e-05,5.85,4.87,0.49205639958381653,-0.017455849796533585,2.0731706619262695,0.21484375,-0.6474609375,0.19873728367371912,0.012449916307367359,0.140926965051644,0.004003618229514738,1.3396673293078374,1.3415499843064402
1624633604.0919602,0.06858445772494604,-1.2026069498903504e-05,5.85,4.87,0.49205639958381653,-0.017455849796533585,2.0731706619262695,0.21484375,-0.6474609375,0.19873728367371912,0.012449916307367359,0.1532307821628131,0.007703462763240132,1.3396673293078374,1.3418018153925566
1624633604.0919602,0.06858445772494604,-1.2026069498903504e-05,5.85,4.87,0.49205639958381653,-0.017455849796533585,2.0731706619262695,0.21484375,-0.6474609375,0.20884093485816257,0.011766218084310347,0.1532307821628131,0.007703462763240132,1.3400386783206275,1.3418018153925566
1624633604.14596,0.07278862747328091,-1.3702531166479118e-05,5.85,4.87,0.49205639958381653,-0.017455849796533585,2.0731706619262695,0.21484375,-0.6474609375,0.20884093485816257,0.011766218084310347,0.1532307821628131,0.007703462763240132,1.3400386783206275,1.3418018153925566
1624633604.14596,0.07278862747328091,-1.3702531166479118e-05,5.85,4.83,0.5000665783882141,-0.015262763015925884,2.0731706619262695,0.21484375,-0.6474609375,0.20884093485816257,0.011766218084310347,0.1532307821628131,0.007703462763240132,1.3400386783206275,1.3418018153925566
1624633604.14596,0.07278862747328091,-1.3702531166479118e-05,5.85,4.83,0.5000665783882141,-0.015262763015925884,3.353658676147461,0.1552734375,-0.3125,0.20884093485816257,0.011766218084310347,0.16493509992894598,0.009143635766681129,1.3400386783206275,1.3420278110428492
1624633604.14596,0.07278862747328091,-1.3702531166479118e-05,5.85,4.83,0.5000665783882141,-0.015262763015925884,3.353658676147461,0.1552734375,-0.3125,0.20884093485816257,0.011766218084310347,0.16493509992894598,0.009143635766681129,1.3400386783206275,1.3420278110428492
1624633604.20596,0.07673506177738233,-1.4433725571917456e-05,5.85,4.83,0.5000665783882141,-0.015262763015925884,3.353658676147461,0.1552734375,-0.3125,0.21664094199921205,0.008467343115585047,0.16493509992894598,0.009143635766681129,1.3403278252715567,1.3420278110428492
1624633604.20596,0.07673506177738233,-1.4433725571917456e-05,5.85,4.83,0.5000665783882141,-0.015262763015925884,3.353658676147461,0.1552734375,-0.3125,0.21664094199921205,0.008467343115585047,0.16493509992894598,0.009143635766681129,1.3403278252715567,1.3420278110428492
1624633604.20596,0.07673506177738233,-1.4433725571917456e-05,5.85,4.83,0.5000665783882141,-0.015262763015925884,3.353658676147461,0.1552734375,-0.3125,0.21664094199921205,0.008467343115585047,0.16493509992894598,0.009143635766681129,1.3403278252715567,1.3420278110428492
1624633604.20596,0.07673506177738233,-1.4433725571917456e-05,5.85,4.83,0.5050795674324036,0.0337805449962616,3.353658676147461,0.1552734375,-0.3125,0.21664094199921205,0.008467343115585047,0.17681542949779122,0.008781470676631802,1.3403278252715567,1.3422467459153575
1624633604.20596,0.07673506177738233,-1.4433725571917456e-05,5.85,4.83,0.5050795674324036,0.0337805449962616,3.353658676147461,0.1552734375,-0.3125,0.21664094199921205,0.008467343115585047,0.17681542949779122,0.008781470676631802,1.3403278252715567,1.3422467459153575
1624633604.2659602,0.08030106971945171,-1.3909502474441573e-05,5.85,4.83,0.5050795674324036,0.0337805449962616,3.353658676147461,0.1552734375,-0.3125,0.22334221250091618,0.007979080899713852,0.17681542949779122,0.008781470676631802,1.3412039555262834,1.3422467459153575
1624633604.2659602,0.08030106971945171,-1.3909502474441573e-05,5.85,4.83,0.5050795674324036,0.0337805449962616,3.353658676147461,0.1552734375,-0.3125,0.22334221250091618,0.007979080899713852,0.17681542949779122,0.008781470676631802,1.3412039555262834,1.3422467459153575
1624633604.2659602,0.08030106971945171,-1.3909502474441573e-05,5.85,4.8,0.5050795674324036,0.0337805449962616,1.5243902206420898,0.3984375,-0.06494140625,0.22334221250091618,0.007979080899713852,0.1882155452102194,0.008434847843226921,1.3412039555262834,1.342514155154289
1624633604.2659602,0.08030106971945171,-1.3909502474441573e-05,5.85,4.8,0.5050795674324036,0.0337805449962616,1.5243902206420898,0.3984375,-0.06494140625,0.22334221250091618,0.007979080899713852,0.1882155452102194,0.008434847843226921,1.3412039555262834,1.342514155154289
1624633604.2659602,0.08030106971945171,-1.3909502474441573e-05,5.85,4.8,0.5182549953460693,-0.002278844593092799,1.5243902206420898,0.3984375,-0.06494140625,0.22334221250091618,0.007979080899713852,0.1882155452102194,0.008434847843226921,1.3412039555262834,1.342514155154289
1624633604.3259602,0.0834533519443546,-1.249036569774923e-05,5.85,4.8,0.5182549953460693,-0.002278844593092799,1.5243902206420898,0.3984375,-0.06494140625,0.22956593229874325,0.008127122411364113,0.1882155452102194,0.008434847843226921,1.3413799444999426,1.342514155154289
1624633604.3259602,0.0834533519443546,-1.249036569774923e-05,5.85,4.8,0.5182549953460693,-0.002278844593092799,1.5243902206420898,0.3984375,-0.06494140625,0.22956593229874325,0.008127122411364113,0.1882155452102194,0.008434847843226921,1.3413799444999426,1.342514155154289
1624633604.3259602,0.0834533519443546,-1.249036569774923e-05,5.85,4.8,0.5182549953460693,-0.002278844593092799,1.5243902206420898,0.3984375,-0.06494140625,0.22956593229874325,0.008127122411364113,0.19904969307321413,0.008248987521246547,1.3413799444999426,1.3427341056924098
1624633604.3259602,0.0834533519443546,-1.249036569774923e-05,5.85,4.8,0.5182549953460693,-0.002278844593092799,1.5243902206420898,0.3984375,-0.06494140625,0.22956593229874325,0.008127122411364113,0.19904969307321413,0.008248987521246547,1.3413799444999426,1.3427341056924098
1624633604.3259602,0.0834533519443546,-1.249036569774923e-05,5.85,4.8,0.5182549953460693,-0.002278844593092799,1.5243902206420898,0.3984375,-0.06494140625,0.22956593229874325,0.008127122411364113,0.19904969307321413,0.008248987521246547,1.3413799444999426,1.3427341056924098
1624633604.3259602,0.08571420694215702,-1.1472199220033865e-05,5.85,4.8,0.5078614950180054,-0.01748240366578102,1.5243902206420898,0.3984375,-0.06494140625,0.22956593229874325,0.008127122411364113,0.19904969307321413,0.008248987521246547,1.3413799444999426,1.3427341056924098
1624633604.3259602,0.08571420694215702,-1.1472199220033865e-05,5.85,4.8,0.5078614950180054,-0.01748240366578102,1.5243902206420898,0.3984375,-0.06494140625,0.22956593229874325,0.008127122411364113,0.19904969307321413,0.008248987521246547,1.3413799444999426,1.3427341056924098
1624633604.3259602,0.08571420694215702,-1.1472199220033865e-05,5.86,4.77,0.5078614950180054,-0.01748240366578102,2.4390244483947754,-0.279296875,-0.0712890625,0.22956593229874325,0.008127122411364113,0.20336450446151064,0.008185413496643961,1.3413799444999426,1.3425361988174305
1624633604.3259602,0.08571420694215702,-1.1472199220033865e-05,5.86,4.77,0.5078614950180054,-0.01748240366578102,2.4390244483947754,-0.279296875,-0.0712890625,0.22956593229874325,0.008127122411364113,0.20336450446151064,0.008185413496643961,1.3413799444999426,1.3425361988174305
1624633604.3259602,0.08571420694215702,-1.1472199220033865e-05,5.86,4.77,0.5078614950180054,-0.01748240366578102,2.4390244483947754,-0.279296875,-0.0712890625,0.22956593229874325,0.008127122411364113,0.20336450446151064,0.008185413496643961,1.3413799444999426,1.3425361988174305
1624633604.4039602,0.08738058542358967,-1.0663100052546447e-05,5.86,4.77,0.5078614950180054,-0.01748240366578102,2.4390244483947754,-0.279296875,-0.0712890625,0.23070757942411474,0.0031746756957907584,0.20336450446151064,0.008185413496643961,1.3410055543185662,1.3425361988174305
1624633604.4039602,0.08738058542358967,-1.0663100052546447e-05,5.86,4.77,0.46669769287109375,-0.03156992420554161,2.4390244483947754,-0.279296875,-0.0712890625,0.23070757942411474,0.0031746756957907584,0.20336450446151064,0.008185413496643961,1.3410055543185662,1.3425361988174305
1624633604.4039602,0.08738058542358967,-1.0663100052546447e-05,5.86,4.77,0.46669769287109375,-0.03156992420554161,2.4390244483947754,-0.279296875,-0.0712890625,0.23070757942411474,0.0031746756957907584,0.21322780173897177,0.005938920425847646,1.3410055543185662,1.3427760604678423
1624633604.4039602,0.08738058542358967,-1.0663100052546447e-05,5.86,4.77,0.46669769287109375,-0.03156992420554161,2.4390244483947754,-0.279296875,-0.0712890625,0.23070757942411474,0.0031746756957907584,0.21322780173897177,0.005938920425847646,1.3410055543185662,1.3427760604678423
1624633604.4039602,0.08738058542358967,-1.0663100052546447e-05,5.86,4.77,0.46669769287109375,-0.03156992420554161,2.4390244483947754,-0.279296875,-0.0712890625,0.23070757942411474,0.0031746756957907584,0.21322780173897177,0.005938920425847646,1.3410055543185662,1.3427760604678423
1624633604.44596,0.08915819907255156,-1.0916784864653231e-05,5.86,4.77,0.46669769287109375,-0.03156992420554161,2.4390244483947754,-0.279296875,-0.0712890625,0.2389859640565935,0.002998766220694663,0.21322780173897177,0.005938920425847646,1.34022961255618,1.3427760604678423
1624633604.44596,0.08915819907255156,-1.0916784864653231e-05,5.84,4.74,0.46669769287109375,-0.03156992420554161,2.4390244483947754,-0.279296875,-0.0712890625,0.2389859640565935,0.002998766220694663,0.21322780173897177,0.005938920425847646,1.34022961255618,1.3427760604678423
1624633604.44596,0.08915819907255156,-1.0916784864653231e-05,5.84,4.74,0.39222654700279236,-0.0011256870348006487,2.4390244483947754,-0.279296875,-0.0712890625,0.2389859640565935,0.002998766220694663,0.22028426960140962,0.0048258922767011525,1.34022961255618,1.3424516066876968
1624633604.44596,0.08915819907255156,-1.0916784864653231e-05,5.84,4.74,0.39222654700279236,-0.0011256870348006487,-0.24390244483947754,0.26611328125,-0.1630859375,0.2389859640565935,0.002998766220694663,0.22028426960140962,0.0048258922767011525,1.34022961255618,1.3424516066876968
1624633604.44596,0.08915819907255156,-1.0916784864653231e-05,5.84,4.74,0.39222654700279236,-0.0011256870348006487,-0.24390244483947754,0.26611328125,-0.1630859375,0.2389859640565935,0.002998766220694663,0.22028426960140962,0.0048258922767011525,1.34022961255618,1.3424516066876968
1624633604.50796,0.09025011379105614,-1.2054293985607056e-05,5.84,4.74,0.39222654700279236,-0.0011256870348006487,-0.24390244483947754,0.26611328125,-0.1630859375,0.23893093870162724,0.00968462920079608,0.22028426960140962,0.0048258922767011525,1.3399315037042565,1.3424516066876968
1624633604.50796,0.09025011379105614,-1.2054293985607056e-05,5.84,4.74,0.39222654700279236,-0.0011256870348006487,-0.24390244483947754,0.26611328125,-0.1630859375,0.23893093870162724,0.00968462920079608,0.22028426960140962,0.0048258922767011525,1.3399315037042565,1.3424516066876968
1624633604.50796,0.09025011379105614,-1.2054293985607056e-05,5.84,4.74,0.39222654700279236,-0.0011256870348006487,-0.24390244483947754,0.26611328125,-0.1630859375,0.23893093870162724,0.00968462920079608,0.22028426960140962,0.0048258922767011525,1.3399315037042565,1.3424516066876968
1624633604.50796,0.09025011379105614,-1.2054293985607056e-05,5.84,4.74,0.29576757550239563,0.015223265625536442,-0.24390244483947754,0.26611328125,-0.1630859375,0.23893093870162724,0.00968462920079608,0.22789270313000037,0.006901255514903532,1.3399315037042565,1.3422990505709695
1624633604.50796,0.09025011379105614,-1.2054293985607056e-05,5.84,4.74,0.29576757550239563,0.015223265625536442,-0.24390244483947754,0.26611328125,-0.1630859375,0.23893093870162724,0.00968462920079608,0.22789270313000037,0.006901255514903532,1.3399315037042565,1.3422990505709695
1624633604.5659602,0.09041861921427864,-1.3449564809689291e-05,5.84,4.74,0.29576757550239563,0.015223265625536442,-0.24390244483947754,0.26611328125,-0.1630859375,0.23511739621331898,0.009105551100638055,0.22789270313000037,0.006901255514903532,1.340107329625342,1.3422990505709695
1624633604.5659602,0.09041861921427864,-1.3449564809689291e-05,5.84,4.74,0.29576757550239563,0.015223265625536442,0.9756097793579102,0.08837890625,0.0478515625,0.23511739621331898,0.009105551100638055,0.23344853078959754,0.0076363311155724384,1.340107329625342,1.342181735413251
1624633604.5659602,0.09041861921427864,-1.3449564809689291e-05,5.84,4.7,0.29576757550239563,0.015223265625536442,0.9756097793579102,0.08837890625,0.0478515625,0.23511739621331898,0.009105551100638055,0.23344853078959754,0.0076363311155724384,1.340107329625342,1.342181735413251
1624633604.5659602,0.09041861921427864,-1.3449564809689291e-05,5.84,4.7,0.29576757550239563,0.015223265625536442,0.9756097793579102,0.08837890625,0.0478515625,0.23511739621331898,0.009105551100638055,0.23344853078959754,0.0076363311155724384,1.340107329625342,1.342181735413251
1624633604.5659602,0.09041861921427864,-1.3449564809689291e-05,5.84,4.7,0.1834055781364441,-2.0145007511018775e-05,0.9756097793579102,0.08837890625,0.0478515625,0.23511739621331898,0.009105551100638055,0.23344853078959754,0.0076363311155724384,1.340107329625342,1.342181735413251
1624633604.62596,0.0892564374524557,-1.47262081807936e-05,5.84,4.7,0.1834055781364441,-2.0145007511018775e-05,0.9756097793579102,0.08837890625,0.0478515625,0.22535971641811234,0.009309852231691966,0.23344853078959754,0.0076363311155724384,1.3402098362361201,1.342181735413251
1624633604.62596,0.0892564374524557,-1.47262081807936e-05,5.84,4.7,0.1834055781364441,-2.0145007511018775e-05,0.9756097793579102,0.08837890625,0.0478515625,0.22535971641811234,0.009309852231691966,0.23344853078959754,0.0076363311155724384,1.3402098362361201,1.342181735413251
1624633604.62596,0.0892564374524557,-1.47262081807936e-05,5.84,4.7,0.1834055781364441,-2.0145007511018775e-05,0.9756097793579102,0.08837890625,0.0478515625,0.22535971641811234,0.009309852231691966,0.23665486942513503,0.0082936303682517,1.3402098362361201,1.342131770477387
1624633604.62596,0.0892564374524557,-1.47262081807936e-05,5.84,4.7,0.1834055781364441,-2.0145007511018775e-05,0.9756097793579102,0.08837890625,0.0478515625,0.22535971641811234,0.009309852231691966,0.23665486942513503,0.0082936303682517,1.3402098362361201,1.342131770477387
1624633604.62596,0.0892564374524557,-1.47262081807936e-05,5.84,4.7,0.1834055781364441,-2.0145007511018775e-05,0.9756097793579102,0.08837890625,0.0478515625,0.22535971641811234,0.009309852231691966,0.23665486942513503,0.0082936303682517,1.3402098362361201,1.342131770477387
1624633604.62596,0.08842205930544805,-1.5636346130178753e-05,5.84,4.7,0.09243367612361908,-0.015222745016217232,0.9756097793579102,0.08837890625,0.0478515625,0.22535971641811234,0.009309852231691966,0.23665486942513503,0.0082936303682517,1.3402098362361201,1.342131770477387
1624633604.62596,0.08842205930544805,-1.5636346130178753e-05,5.83,4.66,0.09243367612361908,-0.015222745016217232,1.402438998222351,-0.0087890625,0.083984375,0.22535971641811234,0.009309852231691966,0.23665486942513503,0.0082936303682517,1.3402098362361201,1.342131770477387
1624633604.62596,0.08842205930544805,-1.5636346130178753e-05,5.83,4.66,0.09243367612361908,-0.015222745016217232,1.402438998222351,-0.0087890625,0.083984375,0.22535971641811234,0.009309852231691966,0.23506192066971,0.00856977107624332,1.3402098362361201,1.3417932068024265
1624633604.62596,0.08842205930544805,-1.5636346130178753e-05,5.83,4.66,0.09243367612361908,-0.015222745016217232,1.402438998222351,-0.0087890625,0.083984375,0.22535971641811234,0.009309852231691966,0.23506192066971,0.00856977107624332,1.3402098362361201,1.3417932068024265
1624633604.62596,0.08842205930544805,-1.5636346130178753e-05,5.83,4.66,0.09243367612361908,-0.015222745016217232,1.402438998222351,-0.0087890625,0.083984375,0.22535971641811234,0.009309852231691966,0.23506192066971,0.00856977107624332,1.3402098362361201,1.3417932068024265
1624633604.69596,0.08577022841149155,-1.613842997786053e-05,5.83,4.66,0.09243367612361908,-0.015222745016217232,1.402438998222351,-0.0087890625,0.083984375,0.20787475648460588,0.007900647215990956,0.23506192066971,0.00856977107624332,1.3402970383951327,1.3417932068024265
1624633604.69596,0.08577022841149155,-1.613842997786053e-05,5.83,4.66,0.01379518024623394,-0.016312556341290474,1.402438998222351,-0.0087890625,0.083984375,0.20787475648460588,0.007900647215990956,0.23506192066971,0.00856977107624332,1.3402970383951327,1.3417932068024265
1624633604.69596,0.08577022841149155,-1.613842997786053e-05,5.83,4.66,0.01379518024623394,-0.016312556341290474,1.402438998222351,-0.0087890625,0.083984375,0.20787475648460588,0.007900647215990956,0.23619818042681964,0.00824479585973905,1.3402970383951327,1.3420017622645428
1624633604.69596,0.08577022841149155,-1.613842997786053e-05,5.83,4.66,0.01379518024623394,-0.016312556341290474,1.402438998222351,-0.0087890625,0.083984375,0.20787475648460588,0.007900647215990956,0.23619818042681964,0.00824479585973905,1.3402970383951327,1.3420017622645428
1624633604.69596,0.08577022841149155,-1.613842997786053e-05,5.83,4.66,0.01379518024623394,-0.016312556341290474,1.402438998222351,-0.0087890625,0.083984375,0.20787475648460588,0.007900647215990956,0.23619818042681964,0.00824479585973905,1.3402970383951327,1.3420017622645428
1624633604.74596,0.08172618863146239,-1.60700681264284e-05,5.83,4.66,0.01379518024623394,-0.016312556341290474,1.402438998222351,-0.0087890625,0.083984375,0.19040982829303613,0.007483980934143797,0.23619818042681964,0.00824479585973905,1.3401999521638444,1.3420017622645428
1624633604.74596,0.08172618863146239,-1.60700681264284e-05,5.82,4.63,3.721682332979981e-06,3.4620301448740065e-05,1.402438998222351,-0.0087890625,0.083984375,0.19040982829303613,0.007483980934143797,0.2327873756654823,0.007919548795637773,1.3401999521638444,1.3419157677614988
1624633604.74596,0.08172618863146239,-1.60700681264284e-05,5.82,4.63,3.721682332979981e-06,3.4620301448740065e-05,0.7317073345184326,-0.01806640625,0.005859375,0.19040982829303613,0.007483980934143797,0.2327873756654823,0.007919548795637773,1.3401999521638444,1.3419157677614988
1624633604.74596,0.08172618863146239,-1.60700681264284e-05,5.82,4.63,3.721682332979981e-06,3.4620301448740065e-05,0.7317073345184326,-0.01806640625,0.005859375,0.19040982829303613,0.007483980934143797,0.2327873756654823,0.007919548795637773,1.3401999521638444,1.3419157677614988
1624633604.74596,0.08172618863146239,-1.60700681264284e-05,5.82,4.63,3.721682332979981e-06,3.4620301448740065e-05,0.7317073345184326,-0.01806640625,0.005859375,0.19040982829303613,0.007483980934143797,0.2327873756654823,0.007919548795637773,1.3401999521638444,1.3419157677614988
1624633604.8059602,0.0760172570194309,-1.552306559148983e-05,5.82,4.63,3.721682332979981e-06,3.4620301448740065e-05,0.7317073345184326,-0.01806640625,0.005859375,0.1690619392710404,0.007506365841463132,0.2327873756654823,0.007919548795637773,1.3403780593609338,1.3419157677614988
1624633604.8059602,0.0760172570194309,-1.552306559148983e-05,5.82,4.63,3.721682332979981e-06,3.4620301448740065e-05,0.7317073345184326,-0.01806640625,0.005859375,0.1690619392710404,0.007506365841463132,0.2327873756654823,0.007919548795637773,1.3403780593609338,1.3419157677614988
1624633604.8059602,0.0760172570194309,-1.552306559148983e-05,5.82,4.63,3.721682332979981e-06,3.4620301448740065e-05,0.7317073345184326,-0.01806640625,0.005859375,0.1690619392710404,0.007506365841463132,0.22681955899434902,0.007689742105034581,1.3403780593609338,1.3419271827454193
1624633604.8059602,0.0760172570194309,-1.552306559148983e-05,5.82,4.63,3.721682332979981e-06,3.4620301448740065e-05,0.7317073345184326,-0.01806640625,0.005859375,0.1690619392710404,0.007506365841463132,0.22681955899434902,0.007689742105034581,1.3403780593609338,1.3419271827454193
1624633604.8059602,0.0760172570194309,-1.552306559148983e-05,5.82,4.63,3.721682332979981e-06,3.4620301448740065e-05,0.7317073345184326,-0.01806640625,0.005859375,0.1690619392710404,0.007506365841463132,0.22681955899434902,0.007689742105034581,1.3403780593609338,1.3419271827454193
1624633604.8659601,0.06897197824466522,-1.4533801063097282e-05,5.82,4.63,3.721682332979981e-06,3.4620301448740065e-05,0.7317073345184326,-0.01806640625,0.005859375,0.14842323944064273,0.007037867716668403,0.22681955899434902,0.007689742105034581,1.3404398842437952,1.3419271827454193
1624633604.8659601,0.06897197824466522,-1.4533801063097282e-05,5.82,4.63,3.721682332979981e-06,3.4620301448740065e-05,0.7317073345184326,-0.01806640625,0.005859375,0.14842323944064273,0.007037867716668403,0.21795150047856066,0.007396029483120887,1.3404398842437952,1.3419327488750372
1624633604.8659601,0.06897197824466522,-1.4533801063097282e-05,5.82,4.61,3.721682332979981e-06,3.4620301448740065e-05,1.8902438879013062,-0.0205078125,0.0087890625,0.14842323944064273,0.007037867716668403,0.21795150047856066,0.007396029483120887,1.3404398842437952,1.3419327488750372
1624633604.8659601,0.06897197824466522,-1.4533801063097282e-05,5.82,4.61,3.721682332979981e-06,3.4620301448740065e-05,1.8902438879013062,-0.0205078125,0.0087890625,0.14842323944064273,0.007037867716668403,0.21795150047856066,0.007396029483120887,1.3404398842437952,1.3419327488750372
1624633604.8659601,0.06897197824466522,-1.4533801063097282e-05,5.82,4.61,3.6330707189335953e-06,3.3796008210629225e-05,1.8902438879013062,-0.0205078125,0.0087890625,0.14842323944064273,0.007037867716668403,0.21795150047856066,0.007396029483120887,1.3404398842437952,1.3419327488750372
1624633604.92596,0.061004143383491624,-1.3205559584812952e-05,5.82,4.61,3.6330707189335953e-06,3.3796008210629225e-05,1.8902438879013062,-0.0205078125,0.0087890625,0.12964090764956704,0.005682842910148089,0.21795150047856066,0.007396029483120887,1.3404250842697958,1.3419327488750372
1624633604.92596,0.061004143383491624,-1.3205559584812952e-05,5.82,4.61,3.6330707189335953e-06,3.3796008210629225e-05,1.8902438879013062,-0.0205078125,0.0087890625,0.12964090764956704,0.005682842910148089,0.21795150047856066,0.007396029483120887,1.3404250842697958,1.3419327488750372
1624633604.92596,0.061004143383491624,-1.3205559584812952e-05,5.82,4.61,3.6330707189335953e-06,3.3796008210629225e-05,1.8902438879013062,-0.0205078125,0.0087890625,0.12964090764956704,0.005682842910148089,0.2068816501299776,0.006605842323441861,1.3404250842697958,1.3418987129329603
1624633604.92596,0.061004143383491624,-1.3205559584812952e-05,5.82,4.61,3.6330707189335953e-06,3.3796008210629225e-05,1.8902438879013062,-0.0205078125,0.0087890625,0.12964090764956704,0.005682842910148089,0.2068816501299776,0.006605842323441861,1.3404250842697958,1.3418987129329603
1624633604.92596,0.061004143383491624,-1.3205559584812952e-05,5.82,4.61,3.6330707189335953e-06,3.3796008210629225e-05,1.8902438879013062,-0.0205078125,0.0087890625,0.12964090764956704,0.005682842910148089,0.2068816501299776,0.006605842323441861,1.3404250842697958,1.3418987129329603
1624633604.92596,0.055287459235863375,-1.2254486964146605e-05,5.82,4.61,3.721682332979981e-06,3.4620301448740065e-05,1.8902438879013062,-0.0205078125,0.0087890625,0.12964090764956704,0.005682842910148089,0.2068816501299776,0.006605842323441861,1.3404250842697958,1.3418987129329603
1624633604.92596,0.055287459235863375,-1.2254486964146605e-05,5.82,4.61,3.721682332979981e-06,3.4620301448740065e-05,1.8902438879013062,-0.0205078125,0.0087890625,0.12964090764956704,0.005682842910148089,0.2068816501299776,0.006605842323441861,1.3404250842697958,1.3418987129329603
1624633604.92596,0.055287459235863375,-1.2254486964146605e-05,5.81,4.58,3.721682332979981e-06,3.4620301448740065e-05,1.4634146690368652,-0.03076171875,0.0146484375,0.12964090764956704,0.005682842910148089,0.2068816501299776,0.006605842323441861,1.3404250842697958,1.3418987129329603
1624633604.92596,0.055287459235863375,-1.2254486964146605e-05,5.81,4.58,3.721682332979981e-06,3.4620301448740065e-05,1.4634146690368652,-0.03076171875,0.0146484375,0.12964090764956704,0.005682842910148089,0.2068816501299776,0.006605842323441861,1.3404250842697958,1.3418987129329603
1624633604.92596,0.055287459235863375,-1.2254486964146605e-05,5.81,4.58,3.721682332979981e-06,3.4620301448740065e-05,1.4634146690368652,-0.03076171875,0.0146484375,0.12964090764956704,0.005682842910148089,0.2068816501299776,0.006605842323441861,1.3404250842697958,1.3418987129329603
1624633605.00796,0.04797026443758661,-1.0939391286988873e-05,5.81,4.58,3.721682332979981e-06,3.4620301448740065e-05,1.4634146690368652,-0.03076171875,0.0146484375,0.1103091990633017,0.004620818204621318,0.19597024473116778,0.0063050076394462265,1.3405016193868282,1.3416159151178724
1624633605.00796,0.04797026443758661,-1.0939391286988873e-05,5.81,4.58,3.721682332979981e-06,3.4620301448740065e-05,1.4634146690368652,-0.03076171875,0.0146484375,0.1103091990633017,0.004620818204621318,0.19597024473116778,0.0063050076394462265,1.3405016193868282,1.3416159151178724
1624633605.00796,0.04797026443758661,-1.0939391286988873e-05,5.81,4.58,3.721682332979981e-06,3.4620301448740065e-05,1.4634146690368652,-0.03076171875,0.0146484375,0.1103091990633017,0.004620818204621318,0.19597024473116778,0.0063050076394462265,1.3405016193868282,1.3416159151178724
1624633605.00796,0.04797026443758661,-1.0939391286988873e-05,5.81,4.58,3.721682332979981e-06,3.4620301448740065e-05,1.4634146690368652,-0.03076171875,0.0146484375,0.1103091990633017,0.004620818204621318,0.19597024473116778,0.0063050076394462265,1.3405016193868282,1.3416159151178724
1624633605.00796,0.04797026443758661,-1.0939391286988873e-05,5.81,4.58,3.721682332979981e-06,3.4620301448740065e-05,1.4634146690368652,-0.03076171875,0.0146484375,0.11388500260083367,0.004431760539910612,0.18654331470303545,0.00552746988324257,1.3403827166050273,1.3418586897169542
1624633605.0459602,0.04199492391310093,-9.496515698796702e-06,5.81,4.58,3.721682332979981e-06,3.4620301448740065e-05,1.4634146690368652,-0.03076171875,0.0146484375,0.11388500260083367,0.004431760539910612,0.18654331470303545,0.00552746988324257,1.3403827166050273,1.3418586897169542
1624633605.0459602,0.04199492391310093,-9.496515698796702e-06,5.82,4.55,0.006048980634659529,0.01673470437526703,1.2804877758026123,-0.01953125,0.01123046875,0.11388500260083367,0.004431760539910612,0.17697719148349983,0.005101753508359302,1.3403827166050273,1.3417167497412743
1624633605.0459602,0.04199492391310093,-9.496515698796702e-06,5.82,4.55,0.006048980634659529,0.01673470437526703,1.2804877758026123,-0.01953125,0.01123046875,0.11388500260083367,0.004431760539910612,0.17697719148349983,0.005101753508359302,1.3403827166050273,1.3417167497412743
1624633605.0459602,0.04199492391310093,-9.496515698796702e-06,5.82,4.55,0.006048980634659529,0.01673470437526703,1.2804877758026123,-0.01953125,0.01123046875,0.11388500260083367,0.004431760539910612,0.17697719148349983,0.005101753508359302,1.3403827166050273,1.3417167497412743
1624633605.0459602,0.04199492391310093,-9.496515698796702e-06,5.82,4.55,0.006048980634659529,0.01673470437526703,1.2804877758026123,-0.01953125,0.01123046875,0.11388500260083367,0.004431760539910612,0.17697719148349983,0.005101753508359302,1.3403827166050273,1.3417167497412743
1624633605.1059601,0.0374058070978996,-7.945821674844922e-06,5.82,4.55,0.006048980634659529,0.01673470437526703,1.2804877758026123,-0.01953125,0.01123046875,0.12407548851622914,0.003288376558344333,0.17697719148349983,0.005101753508359302,1.3403376857285136,1.3417167497412743
1624633605.1059601,0.0374058070978996,-7.945821674844922e-06,5.82,4.55,0.006048980634659529,0.01673470437526703,1.2804877758026123,-0.01953125,0.01123046875,0.12407548851622914,0.003288376558344333,0.17697719148349983,0.005101753508359302,1.3403376857285136,1.3417167497412743
1624633605.1059601,0.0374058070978996,-7.945821674844922e-06,5.82,4.55,0.053043432533741,-0.015222745016217232,1.2804877758026123,-0.01953125,0.01123046875,0.12407548851622914,0.003288376558344333,0.17697719148349983,0.005101753508359302,1.3403376857285136,1.3417167497412743
1624633605.1059601,0.0374058070978996,-7.945821674844922e-06,5.82,4.55,0.053043432533741,-0.015222745016217232,1.2804877758026123,-0.01953125,0.01123046875,0.12407548851622914,0.003288376558344333,0.17697719148349983,0.005101753508359302,1.3403376857285136,1.3417167497412743
1624633605.1059601,0.0374058070978996,-7.945821674844922e-06,5.82,4.55,0.053043432533741,-0.015222745016217232,1.2804877758026123,-0.01953125,0.01123046875,0.13549293441502908,0.0030713920179942303,0.17075147889828404,0.004255760915592194,1.340146362854581,1.34165696224366
1624633605.166456,0.03422590813038507,-6.332034673547487e-06,5.81,4.54,0.053043432533741,-0.015222745016217232,1.2804877758026123,-0.01953125,0.01123046875,0.13549293441502908,0.0030713920179942303,0.17075147889828404,0.004255760915592194,1.340146362854581,1.34165696224366
1624633605.166456,0.03422590813038507,-6.332034673547487e-06,5.81,4.54,0.053043432533741,-0.015222745016217232,2.195122003555298,-0.0048828125,-0.3359375,0.13549293441502908,0.0030713920179942303,0.17075147889828404,0.004255760915592194,1.340146362854581,1.34165696224366
1624633605.166456,0.03422590813038507,-6.332034673547487e-06,5.81,4.54,0.053043432533741,-0.015222745016217232,2.195122003555298,-0.0048828125,-0.3359375,0.13549293441502908,0.0030713920179942303,0.17075147889828404,0.004255760915592194,1.340146362854581,1.34165696224366
1624633605.166456,0.03422590813038507,-6.332034673547487e-06,5.81,4.54,0.13558965921401978,-0.0163525752723217,2.195122003555298,-0.0048828125,-0.3359375,0.13549293441502908,0.0030713920179942303,0.17075147889828404,0.004255760915592194,1.340146362854581,1.34165696224366
1624633605.166456,0.03422590813038507,-6.332034673547487e-06,5.81,4.54,0.13558965921401978,-0.0163525752723217,2.195122003555298,-0.0048828125,-0.3359375,0.13549293441502908,0.0030713920179942303,0.16694997895063585,0.0037653116310529568,1.340146362854581,1.3415560741653538
1624633605.226456,0.032449539022788465,-4.685835013781141e-06,5.81,4.54,0.13558965921401978,-0.0163525752723217,2.195122003555298,-0.0048828125,-0.3359375,0.1483637822822303,0.003961049742137341,0.1656117877624146,0.0038020752991177746,1.3402701473346317,1.3415028675829723
1624633605.226456,0.032449539022788465,-4.685835013781141e-06,5.81,4.54,0.13558965921401978,-0.0163525752723217,2.195122003555298,-0.0048828125,-0.3359375,0.1483637822822303,0.003961049742137341,0.1656117877624146,0.0038020752991177746,1.3402701473346317,1.3415028675829723
1624633605.226456,0.032449539022788465,-4.685835013781141e-06,5.81,4.54,0.13558965921401978,-0.0163525752723217,2.195122003555298,-0.0048828125,-0.3359375,0.1483637822822303,0.003961049742137341,0.1656117877624146,0.0038020752991177746,1.3402701473346317,1.3415028675829723
1624633605.226456,0.032449539022788465,-4.685835013781141e-06,5.81,4.54,0.13558965921401978,-0.0163525752723217,2.195122003555298,-0.0048828125,-0.3359375,0.1483637822822303,0.003961049742137341,0.1656117877624146,0.0038020752991177746,1.3402701473346317,1.3415028675829723
1624633605.226456,0.032449539022788465,-4.685835013781141e-06,5.81,4.54,0.24950119853019714,-0.017402369529008865,2.195122003555298,-0.0048828125,-0.3359375,0.1483637822822303,0.003961049742137341,0.1656117877624146,0.0038020752991177746,1.3402701473346317,1.3415028675829723
1624633605.226456,0.03117459434041837,-3.5025267963941974e-06,5.81,4.54,0.24950119853019714,-0.017402369529008865,2.195122003555298,-0.0048828125,-0.3359375,0.1483637822822303,0.003961049742137341,0.1656117877624146,0.0038020752991177746,1.3402701473346317,1.3415028675829723
1624633605.226456,0.03117459434041837,-3.5025267963941974e-06,5.82,4.54,0.24950119853019714,-0.017402369529008865,0.6707317233085632,-0.01123046875,-0.2900390625,0.1483637822822303,0.003961049742137341,0.1656117877624146,0.0038020752991177746,1.3402701473346317,1.3415028675829723
1624633605.226456,0.03117459434041837,-3.5025267963941974e-06,5.82,4.54,0.24950119853019714,-0.017402369529008865,0.6707317233085632,-0.01123046875,-0.2900390625,0.1483637822822303,0.003961049742137341,0.1656117877624146,0.0038020752991177746,1.3402701473346317,1.3415028675829723
1624633605.226456,0.03117459434041837,-3.5025267963941974e-06,5.82,4.54,0.24950119853019714,-0.017402369529008865,0.6707317233085632,-0.01123046875,-0.2900390625,0.1483637822822303,0.003961049742137341,0.1656117877624146,0.0038020752991177746,1.3402701473346317,1.3415028675829723
1624633605.226456,0.03117459434041837,-3.5025267963941974e-06,5.82,4.54,0.24950119853019714,-0.017402369529008865,0.6707317233085632,-0.01123046875,-0.2900390625,0.16303894401329092,0.006495667894026644,0.16317744818837174,0.003827066018986984,1.3402796785675086,1.3413107329193863
1624633605.300456,0.030978905209508717,-2.1920813711940604e-06,5.82,4.54,0.3507125675678253,0.015278522856533527,0.6707317233085632,-0.01123046875,-0.2900390625,0.16303894401329092,0.006495667894026644,0.16317744818837174,0.003827066018986984,1.3402796785675086,1.3413107329193863
1624633605.300456,0.030978905209508717,-2.1920813711940604e-06,5.82,4.54,0.3507125675678253,0.015278522856533527,0.6707317233085632,-0.01123046875,-0.2900390625,0.16303894401329092,0.006495667894026644,0.16317744818837174,0.003827066018986984,1.3402796785675086,1.3413107329193863
1624633605.300456,0.030978905209508717,-2.1920813711940604e-06,5.82,4.54,0.3507125675678253,0.015278522856533527,0.6707317233085632,-0.01123046875,-0.2900390625,0.16303894401329092,0.006495667894026644,0.16317744818837174,0.003827066018986984,1.3402796785675086,1.3413107329193863
1624633605.300456,0.030978905209508717,-2.1920813711940604e-06,5.82,4.54,0.3507125675678253,0.015278522856533527,0.6707317233085632,-0.01123046875,-0.2900390625,0.16303894401329092,0.006495667894026644,0.16317744818837174,0.003827066018986984,1.3402796785675086,1.3413107329193863
1624633605.300456,0.030978905209508717,-2.1920813711940604e-06,5.82,4.54,0.3507125675678253,0.015278522856533527,0.6707317233085632,-0.01123046875,-0.2900390625,0.16145361401502317,0.0061861336485749836,0.16511129049725756,0.004963911080365459,1.3403364552678585,1.3414681119485496
1624633605.346456,0.03056929029308057,-1.0989583725239343e-06,5.82,4.54,0.3507125675678253,0.015278522856533527,0.6707317233085632,-0.01123046875,-0.2900390625,0.16145361401502317,0.0061861336485749836,0.16511129049725756,0.004963911080365459,1.3403364552678585,1.3414681119485496
1624633605.346456,0.03056929029308057,-1.0989583725239343e-06,5.82,4.54,0.45829251408576965,0.034882042557001114,-0.9756097793579102,0.12890625,-0.3955078125,0.16145361401502317,0.0061861336485749836,0.16511129049725756,0.004963911080365459,1.3403364552678585,1.3414681119485496
1624633605.346456,0.03056929029308057,-1.0989583725239343e-06,5.82,4.54,0.45829251408576965,0.034882042557001114,-0.9756097793579102,0.12890625,-0.3955078125,0.16145361401502317,0.0061861336485749836,0.16511129049725756,0.004963911080365459,1.3403364552678585,1.3414681119485496
1624633605.346456,0.03056929029308057,-1.0989583725239343e-06,5.82,4.54,0.45829251408576965,0.034882042557001114,-0.9756097793579102,0.12890625,-0.3955078125,0.16145361401502317,0.0061861336485749836,0.16511129049725756,0.004963911080365459,1.3403364552678585,1.3414681119485496
1624633605.346456,0.03056929029308057,-1.0989583725239343e-06,5.82,4.54,0.45829251408576965,0.034882042557001114,-0.9756097793579102,0.12890625,-0.3955078125,0.16430450963349194,0.0069532808848429654,0.16575615614003986,0.005364703714541655,1.3411740710657747,1.3414854457851613
1624633605.406456,0.030296381233133413,3.6463689397566376e-07,5.82,4.54,0.45829251408576965,0.034882042557001114,-0.9756097793579102,0.12890625,-0.3955078125,0.16430450963349194,0.0069532808848429654,0.16575615614003986,0.005364703714541655,1.3411740710657747,1.3414854457851613
1624633605.406456,0.030296381233133413,3.6463689397566376e-07,5.82,4.54,0.45829251408576965,0.034882042557001114,-0.9756097793579102,0.12890625,-0.3955078125,0.16430450963349194,0.0069532808848429654,0.16575615614003986,0.005364703714541655,1.3411740710657747,1.3414854457851613
1624633605.406456,0.030296381233133413,3.6463689397566376e-07,5.82,4.54,0.5231550931930542,0.016303537413477898,-0.9756097793579102,0.12890625,-0.3955078125,0.16430450963349194,0.0069532808848429654,0.16575615614003986,0.005364703714541655,1.3411740710657747,1.3414854457851613
1624633605.406456,0.030296381233133413,3.6463689397566376e-07,5.82,4.54,0.5231550931930542,0.016303537413477898,-0.9756097793579102,0.12890625,-0.3955078125,0.16430450963349194,0.0069532808848429654,0.16575615614003986,0.005364703714541655,1.3411740710657747,1.3414854457851613
1624633605.466456,0.030630741936324566,2.4751837580108553e-06,5.82,4.54,0.5231550931930542,0.016303537413477898,-0.9756097793579102,0.12890625,-0.3955078125,0.17282977691691645,0.006533967411755223,0.16707048766556346,0.006044154893471844,1.341523609505106,1.341732644981806
1624633605.466456,0.030630741936324566,2.4751837580108553e-06,5.82,4.54,0.5231550931930542,0.016303537413477898,-0.9756097793579102,0.12890625,-0.3955078125,0.17282977691691645,0.006533967411755223,0.16707048766556346,0.006044154893471844,1.341523609505106,1.341732644981806
1624633605.466456,0.030630741936324566,2.4751837580108553e-06,5.83,4.54,0.5231550931930542,0.016303537413477898,-0.9756097793579102,0.12890625,-0.3955078125,0.17282977691691645,0.006533967411755223,0.16707048766556346,0.006044154893471844,1.341523609505106,1.341732644981806
1624633605.466456,0.030630741936324566,2.4751837580108553e-06,5.83,4.54,0.5231550931930542,0.016303537413477898,5.243902683258057,0.125,-0.2841796875,0.17282977691691645,0.006533967411755223,0.16707048766556346,0.006044154893471844,1.341523609505106,1.341732644981806
1624633605.466456,0.030630741936324566,2.4751837580108553e-06,5.83,4.54,0.544976532459259,-0.03382603079080582,5.243902683258057,0.125,-0.2841796875,0.17282977691691645,0.006533967411755223,0.1695256873195026,0.0062062446508463695,1.341523609505106,1.3420043420829395
1624633605.526456,0.03176744348098817,4.913771960934688e-06,5.83,4.54,0.544976532459259,-0.03382603079080582,5.243902683258057,0.125,-0.2841796875,0.18456351769792334,0.004799695112943547,0.1695256873195026,0.0062062446508463695,1.341253811925567,1.3420043420829395
1624633605.526456,0.03176744348098817,4.913771960934688e-06,5.83,4.54,0.544976532459259,-0.03382603079080582,5.243902683258057,0.125,-0.2841796875,0.18456351769792334,0.004799695112943547,0.1695256873195026,0.0062062446508463695,1.341253811925567,1.3420043420829395
1624633605.526456,0.03176744348098817,4.913771960934688e-06,5.83,4.54,0.544976532459259,-0.03382603079080582,5.243902683258057,0.125,-0.2841796875,0.18456351769792334,0.004799695112943547,0.1695256873195026,0.0062062446508463695,1.341253811925567,1.3420043420829395
1624633605.526456,0.03176744348098817,4.913771960934688e-06,5.83,4.54,0.544976532459259,-0.03382603079080582,5.243902683258057,0.125,-0.2841796875,0.18456351769792334,0.004799695112943547,0.1695256873195026,0.0062062446508463695,1.341253811925567,1.3420043420829395
1624633605.526456,0.03176744348098817,4.913771960934688e-06,5.83,4.54,0.544976532459259,-0.03382603079080582,5.243902683258057,0.125,-0.2841796875,0.18456351769792334,0.004799695112943547,0.17353329359512198,0.005563550789189295,1.341253811925567,1.34214444594426
1624633605.526456,0.032583207156933865,6.66247674649096e-06,5.83,4.54,0.5332013368606567,-0.0011334512382745743,5.243902683258057,0.125,-0.2841796875,0.18456351769792334,0.004799695112943547,0.17353329359512198,0.005563550789189295,1.341253811925567,1.34214444594426
1624633605.526456,0.032583207156933865,6.66247674649096e-06,5.83,4.54,0.5332013368606567,-0.0011334512382745743,2.2560975551605225,0.31005859375,0.09375,0.18456351769792334,0.004799695112943547,0.17353329359512198,0.005563550789189295,1.341253811925567,1.34214444594426
1624633605.526456,0.032583207156933865,6.66247674649096e-06,5.81,4.51,0.5332013368606567,-0.0011334512382745743,2.2560975551605225,0.31005859375,0.09375,0.18456351769792334,0.004799695112943547,0.17353329359512198,0.005563550789189295,1.341253811925567,1.34214444594426
1624633605.526456,0.032583207156933865,6.66247674649096e-06,5.81,4.51,0.5332013368606567,-0.0011334512382745743,2.2560975551605225,0.31005859375,0.09375,0.18456351769792334,0.004799695112943547,0.17509043786891076,0.005316709902483964,1.341253811925567,1.3419998532311996
1624633605.526456,0.032583207156933865,6.66247674649096e-06,5.81,4.51,0.5332013368606567,-0.0011334512382745743,2.2560975551605225,0.31005859375,0.09375,0.18456351769792334,0.004799695112943547,0.17509043786891076,0.005316709902483964,1.341253811925567,1.3419998532311996
1624633605.592456,0.03401675140864906,7.858320918241696e-06,5.81,4.51,0.5332013368606567,-0.0011334512382745743,2.2560975551605225,0.31005859375,0.09375,0.19539250238347042,-0.004911070834997946,0.17509043786891076,0.005316709902483964,1.341001413930032,1.3419998532311996
1624633605.592456,0.03401675140864906,7.858320918241696e-06,5.81,4.51,0.5000916123390198,-0.017440611496567726,2.2560975551605225,0.31005859375,0.09375,0.19539250238347042,-0.004911070834997946,0.17509043786891076,0.005316709902483964,1.341001413930032,1.3419998532311996
1624633605.592456,0.03401675140864906,7.858320918241696e-06,5.81,4.51,0.5000916123390198,-0.017440611496567726,2.2560975551605225,0.31005859375,0.09375,0.19539250238347042,-0.004911070834997946,0.17509043786891076,0.005316709902483964,1.341001413930032,1.3419998532311996
1624633605.592456,0.03401675140864906,7.858320918241696e-06,5.81,4.51,0.5000916123390198,-0.017440611496567726,2.2560975551605225,0.31005859375,0.09375,0.19539250238347042,-0.004911070834997946,0.17997136527389376,0.0007480039399024307,1.341001413930032,1.3419478814816657
1624633605.592456,0.03401675140864906,7.858320918241696e-06,5.81,4.51,0.5000916123390198,-0.017440611496567726,2.2560975551605225,0.31005859375,0.09375,0.19539250238347042,-0.004911070834997946,0.17997136527389376,0.0007480039399024307,1.341001413930032,1.3419478814816657
1624633605.646456,0.03605720302232391,8.371769233385926e-06,5.81,4.51,0.5000916123390198,-0.017440611496567726,2.2560975551605225,0.31005859375,0.09375,0.20700039275790397,-0.004652259185569398,0.17997136527389376,0.0007480039399024307,1.3406023367451954,1.3419478814816657
1624633605.646456,0.03605720302232391,8.371769233385926e-06,5.81,4.51,0.5000916123390198,-0.017440611496567726,2.2560975551605225,0.31005859375,0.09375,0.20700039275790397,-0.004652259185569398,0.17997136527389376,0.0007480039399024307,1.3406023367451954,1.3419478814816657
1624633605.646456,0.03605720302232391,8.371769233385926e-06,5.82,4.47,0.41768139600753784,-0.017455849796533585,-1.2195122241973877,0.0146484375,-0.01171875,0.20700039275790397,-0.004652259185569398,0.17997136527389376,0.0007480039399024307,1.3406023367451954,1.3419478814816657
1624633605.646456,0.03605720302232391,8.371769233385926e-06,5.82,4.47,0.41768139600753784,-0.017455849796533585,-1.2195122241973877,0.0146484375,-0.01171875,0.20700039275790397,-0.004652259185569398,0.1856915745206549,-0.0012855304735419277,1.3406023367451954,1.341658440488253
1624633605.646456,0.03605720302232391,8.371769233385926e-06,5.82,4.47,0.41768139600753784,-0.017455849796533585,-1.2195122241973877,0.0146484375,-0.01171875,0.20700039275790397,-0.004652259185569398,0.1856915745206549,-0.0012855304735419277,1.3406023367451954,1.341658440488253
1624633605.706456,0.038217930378929205,8.110445274086495e-06,5.82,4.47,0.41768139600753784,-0.017455849796533585,-1.2195122241973877,0.0146484375,-0.01171875,0.2137734999718794,0.0032849973836319287,0.1856915745206549,-0.0012855304735419277,1.3403037474460628,1.341658440488253
1624633605.706456,0.038217930378929205,8.110445274086495e-06,5.82,4.47,0.41768139600753784,-0.017455849796533585,-1.2195122241973877,0.0146484375,-0.01171875,0.2137734999718794,0.0032849973836319287,0.1856915745206549,-0.0012855304735419277,1.3403037474460628,1.341658440488253
1624633605.706456,0.038217930378929205,8.110445274086495e-06,5.82,4.47,0.3409173786640167,-0.001108672353439033,-1.2195122241973877,0.0146484375,-0.01171875,0.2137734999718794,0.0032849973836319287,0.19196866923166478,0.0006749152220280436,1.3403037474460628,1.3414486917488317
1624633605.706456,0.038217930378929205,8.110445274086495e-06,5.82,4.47,0.3409173786640167,-0.001108672353439033,-1.2195122241973877,0.0146484375,-0.01171875,0.2137734999718794,0.0032849973836319287,0.19196866923166478,0.0006749152220280436,1.3403037474460628,1.3414486917488317
1624633605.706456,0.038217930378929205,8.110445274086495e-06,5.82,4.47,0.3409173786640167,-0.001108672353439033,-1.2195122241973877,0.0146484375,-0.01171875,0.2137734999718794,0.0032849973836319287,0.19196866923166478,0.0006749152220280436,1.3403037474460628,1.3414486917488317
1624633605.7664561,0.04002417764987498,7.503836798216734e-06,5.82,4.47,0.3409173786640167,-0.001108672353439033,-1.2195122241973877,0.0146484375,-0.01171875,0.21549643215173017,0.003078681315608306,0.19196866923166478,0.0006749152220280436,1.3403033369081097,1.3414486917488317
1624633605.7664561,0.04002417764987498,7.503836798216734e-06,5.82,4.47,0.3409173786640167,-0.001108672353439033,0.9146341681480408,-0.076171875,0.44677734375,0.21549643215173017,0.003078681315608306,0.19196866923166478,0.0006749152220280436,1.3403033369081097,1.3414486917488317
1624633605.7664561,0.04002417764987498,7.503836798216734e-06,5.8,4.43,0.3409173786640167,-0.001108672353439033,0.9146341681480408,-0.076171875,0.44677734375,0.21549643215173017,0.003078681315608306,0.1977041694065882,0.0015197413715896065,1.3403033369081097,1.3413105627419304
1624633605.7664561,0.04002417764987498,7.503836798216734e-06,5.8,4.43,0.3409173786640167,-0.001108672353439033,0.9146341681480408,-0.076171875,0.44677734375,0.21549643215173017,0.003078681315608306,0.1977041694065882,0.0015197413715896065,1.3403033369081097,1.3413105627419304
1624633605.7664561,0.04002417764987498,7.503836798216734e-06,5.8,4.43,0.2351856827735901,-0.001108672353439033,0.9146341681480408,-0.076171875,0.44677734375,0.21549643215173017,0.003078681315608306,0.1977041694065882,0.0015197413715896065,1.3403033369081097,1.3413105627419304
1624633605.826456,0.04100774707981882,7.031613457443867e-06,5.8,4.43,0.2351856827735901,-0.001108672353439033,0.9146341681480408,-0.076171875,0.44677734375,0.21150444214008993,0.009918130014501862,0.1977041694065882,0.0015197413715896065,1.3405551304030325,1.3413105627419304
1624633605.826456,0.04100774707981882,7.031613457443867e-06,5.8,4.43,0.2351856827735901,-0.001108672353439033,0.9146341681480408,-0.076171875,0.44677734375,0.21150444214008993,0.009918130014501862,0.1977041694065882,0.0015197413715896065,1.3405551304030325,1.3413105627419304
1624633605.826456,0.04100774707981882,7.031613457443867e-06,5.8,4.43,0.2351856827735901,-0.001108672353439033,0.9146341681480408,-0.076171875,0.44677734375,0.21150444214008993,0.009918130014501862,0.20198279854830994,0.005065300463487873,1.3405551304030325,1.3414238853097389
1624633605.826456,0.04100774707981882,7.031613457443867e-06,5.8,4.43,0.2351856827735901,-0.001108672353439033,0.9146341681480408,-0.076171875,0.44677734375,0.21150444214008993,0.009918130014501862,0.20198279854830994,0.005065300463487873,1.3405551304030325,1.3414238853097389
1624633605.826456,0.04100774707981882,7.031613457443867e-06,5.8,4.43,0.2351856827735901,-0.001108672353439033,0.9146341681480408,-0.076171875,0.44677734375,0.21150444214008993,0.009918130014501862,0.20198279854830994,0.005065300463487873,1.3405551304030325,1.3414238853097389
1624633605.826456,0.041713169943815576,6.712606465353269e-06,5.8,4.43,0.12931343913078308,-5.397439053922426e-06,0.9146341681480408,-0.076171875,0.44677734375,0.21150444214008993,0.009918130014501862,0.20198279854830994,0.005065300463487873,1.3405551304030325,1.3414238853097389
1624633605.826456,0.041713169943815576,6.712606465353269e-06,5.61,4.62,0.12931343913078308,-5.397439053922426e-06,0.9146341681480408,-0.076171875,0.44677734375,0.21150444214008993,0.009918130014501862,0.20198279854830994,0.005065300463487873,1.3405551304030325,1.3414238853097389
1624633605.826456,0.041713169943815576,6.712606465353269e-06,5.61,4.62,0.12931343913078308,-5.397439053922426e-06,0.4878048896789551,0.0068359375,0.1298828125,0.21150444214008993,0.009918130014501862,0.20332912570803785,0.0064960709688423,1.3405551304030325,1.3413460863860287
1624633605.826456,0.041713169943815576,6.712606465353269e-06,5.61,4.62,0.12931343913078308,-5.397439053922426e-06,0.4878048896789551,0.0068359375,0.1298828125,0.21150444214008993,0.009918130014501862,0.20332912570803785,0.0064960709688423,1.3405551304030325,1.3413460863860287
1624633605.826456,0.041713169943815576,6.712606465353269e-06,5.61,4.62,0.12931343913078308,-5.397439053922426e-06,0.4878048896789551,0.0068359375,0.1298828125,0.21150444214008993,0.009918130014501862,0.20332912570803785,0.0064960709688423,1.3405551304030325,1.3413460863860287
1624633605.904456,0.04097495886626315,6.5059676765695485e-06,5.61,4.62,0.12931343913078308,-5.397439053922426e-06,0.4878048896789551,0.0068359375,0.1298828125,0.19743139736513896,0.005071188126752366,0.20332912570803785,0.0064960709688423,1.3407412874180755,1.3413460863860287
1624633605.904456,0.04097495886626315,6.5059676765695485e-06,5.61,4.62,0.04688170924782753,0.0021894650999456644,0.4878048896789551,0.0068359375,0.1298828125,0.19743139736513896,0.005071188126752366,0.20332912570803785,0.0064960709688423,1.3407412874180755,1.3413460863860287
1624633605.904456,0.04097495886626315,6.5059676765695485e-06,5.61,4.62,0.04688170924782753,0.0021894650999456644,0.4878048896789551,0.0068359375,0.1298828125,0.19743139736513896,0.005071188126752366,0.20517504033446482,0.005848934964254215,1.3407412874180755,1.3416630661142872
1624633605.904456,0.04097495886626315,6.5059676765695485e-06,5.61,4.62,0.04688170924782753,0.0021894650999456644,0.4878048896789551,0.0068359375,0.1298828125,0.19743139736513896,0.005071188126752366,0.20517504033446482,0.005848934964254215,1.3407412874180755,1.3416630661142872
1624633605.904456,0.04097495886626315,6.5059676765695485e-06,5.61,4.62,0.04688170924782753,0.0021894650999456644,0.4878048896789551,0.0068359375,0.1298828125,0.19743139736513896,0.005071188126752366,0.20517504033446482,0.005848934964254215,1.3407412874180755,1.3416630661142872
1624633605.946456,0.03926098540610817,6.328082926476111e-06,5.61,4.62,0.04688170924782753,0.0021894650999456644,0.4878048896789551,0.0068359375,0.1298828125,0.18559843834741233,0.004864561780236114,0.20517504033446482,0.005848934964254215,1.341080408430379,1.3416630661142872
1624633605.946456,0.03926098540610817,6.328082926476111e-06,5.6,4.53,1.0579581157799112e-06,9.841471182880923e-06,0.4878048896789551,0.0068359375,0.1298828125,0.18559843834741233,0.004864561780236114,0.20517504033446482,0.005848934964254215,1.341080408430379,1.3416630661142872
1624633605.946456,0.03926098540610817,6.328082926476111e-06,5.6,4.53,1.0579581157799112e-06,9.841471182880923e-06,0.3658536672592163,-0.013671875,0.07666015625,0.18559843834741233,0.004864561780236114,0.20363068410095944,0.0054796095635823525,1.341080408430379,1.3417319953760811
1624633605.946456,0.03926098540610817,6.328082926476111e-06,5.6,4.53,1.0579581157799112e-06,9.841471182880923e-06,0.3658536672592163,-0.013671875,0.07666015625,0.18559843834741233,0.004864561780236114,0.20363068410095944,0.0054796095635823525,1.341080408430379,1.3417319953760811
1624633605.946456,0.03926098540610817,6.328082926476111e-06,5.6,4.53,1.0579581157799112e-06,9.841471182880923e-06,0.3658536672592163,-0.013671875,0.07666015625,0.18559843834741233,0.004864561780236114,0.20363068410095944,0.0054796095635823525,1.341080408430379,1.3417319953760811
1624633606.008456,0.03594242171691979,6.200592822238265e-06,5.6,4.53,1.0579581157799112e-06,9.841471182880923e-06,0.3658536672592163,-0.013671875,0.07666015625,0.1661936482621408,0.0044506807019563804,0.20363068410095944,0.0054796095635823525,1.3412402820191622,1.3417319953760811
1624633606.008456,0.03594242171691979,6.200592822238265e-06,5.6,4.53,1.0579581157799112e-06,9.841471182880923e-06,0.3658536672592163,-0.013671875,0.07666015625,0.1661936482621408,0.0044506807019563804,0.19974134764951423,0.005004179397447771,1.3412402820191622,1.3418878262653569
1624633606.008456,0.03594242171691979,6.200592822238265e-06,5.6,4.53,1.0579581157799112e-06,9.841471182880923e-06,0.3658536672592163,-0.013671875,0.07666015625,0.1661936482621408,0.0044506807019563804,0.19974134764951423,0.005004179397447771,1.3412402820191622,1.3418878262653569
1624633606.008456,0.03594242171691979,6.200592822238265e-06,5.6,4.53,1.0579581157799112e-06,9.841471182880923e-06,0.3658536672592163,-0.013671875,0.07666015625,0.1661936482621408,0.0044506807019563804,0.19974134764951423,0.005004179397447771,1.3412402820191622,1.3418878262653569
1624633606.008456,0.03594242171691979,6.200592822238265e-06,5.6,4.53,1.0579581157799112e-06,9.841471182880923e-06,0.3658536672592163,-0.013671875,0.07666015625,0.1661936482621408,0.0044506807019563804,0.19974134764951423,0.005004179397447771,1.3412402820191622,1.3418878262653569
1624633606.066456,0.03130408180436505,6.173312757102263e-06,5.6,4.53,1.0579581157799112e-06,9.841471182880923e-06,1.8292683362960815,-0.01904296875,-0.01953125,0.1470434942585353,0.004183076460893654,0.19974134764951423,0.005004179397447771,1.341290936296451,1.3418878262653569
1624633606.066456,0.03130408180436505,6.173312757102263e-06,5.63,4.48,1.0579581157799112e-06,9.841471182880923e-06,1.8292683362960815,-0.01904296875,-0.01953125,0.1470434942585353,0.004183076460893654,0.19298137742437338,0.004676723153248618,1.341290936296451,1.341982552922625
1624633606.066456,0.03130408180436505,6.173312757102263e-06,5.63,4.48,1.0579581157799112e-06,9.841471182880923e-06,1.8292683362960815,-0.01904296875,-0.01953125,0.1470434942585353,0.004183076460893654,0.19298137742437338,0.004676723153248618,1.341290936296451,1.341982552922625
1624633606.066456,0.03130408180436505,6.173312757102263e-06,5.63,4.48,0.0017548161558806896,-0.016323871910572052,1.8292683362960815,-0.01904296875,-0.01953125,0.1470434942585353,0.004183076460893654,0.19298137742437338,0.004676723153248618,1.341290936296451,1.341982552922625
1624633606.066456,0.03130408180436505,6.173312757102263e-06,5.63,4.48,0.0017548161558806896,-0.016323871910572052,1.8292683362960815,-0.01904296875,-0.01953125,0.1470434942585353,0.004183076460893654,0.19298137742437338,0.004676723153248618,1.341290936296451,1.341982552922625
1624633606.126456,0.025621600189291563,6.377802509265307e-06,5.63,4.48,0.0017548161558806896,-0.016323871910572052,1.8292683362960815,-0.01904296875,-0.01953125,0.12878327057486685,0.0060013499557661516,0.19298137742437338,0.004676723153248618,1.3413780318997315,1.341982552922625
1624633606.126456,0.025621600189291563,6.377802509265307e-06,5.63,4.48,0.0017548161558806896,-0.016323871910572052,1.8292683362960815,-0.01904296875,-0.01953125,0.12878327057486685,0.0060013499557661516,0.19298137742437338,0.004676723153248618,1.3413780318997315,1.341982552922625
1624633606.126456,0.025621600189291563,6.377802509265307e-06,5.63,4.48,0.0017548161558806896,-0.016323871910572052,1.8292683362960815,-0.01904296875,-0.01953125,0.12878327057486685,0.0060013499557661516,0.19298137742437338,0.004676723153248618,1.3413780318997315,1.341982552922625
1624633606.126456,0.025621600189291563,6.377802509265307e-06,5.63,4.48,0.0017548161558806896,-0.016323871910572052,1.8292683362960815,-0.01904296875,-0.01953125,0.12878327057486685,0.0060013499557661516,0.19298137742437338,0.004676723153248618,1.3413780318997315,1.341982552922625
1624633606.126456,0.025621600189291563,6.377802509265307e-06,5.63,4.48,3.434846576055861e-06,-3.195206227246672e-05,1.8292683362960815,-0.01904296875,-0.01953125,0.12878327057486685,0.0060013499557661516,0.18401090441752133,0.005225876148940274,1.3413780318997315,1.342112021754643
1624633606.126456,0.021541915505380656,6.528197227778367e-06,5.63,4.48,3.434846576055861e-06,-3.195206227246672e-05,1.8292683362960815,-0.01904296875,-0.01953125,0.12878327057486685,0.0060013499557661516,0.18401090441752133,0.005225876148940274,1.3413780318997315,1.342112021754643
1624633606.126456,0.021541915505380656,6.528197227778367e-06,5.67,4.44,3.434846576055861e-06,-3.195206227246672e-05,1.8292683362960815,-0.01904296875,-0.01953125,0.12878327057486685,0.0060013499557661516,0.18401090441752133,0.005225876148940274,1.3413780318997315,1.342112021754643
1624633606.126456,0.021541915505380656,6.528197227778367e-06,5.67,4.44,3.434846576055861e-06,-3.195206227246672e-05,1.5243902206420898,-0.005859375,0.03271484375,0.12878327057486685,0.0060013499557661516,0.18401090441752133,0.005225876148940274,1.3413780318997315,1.342112021754643
1624633606.126456,0.021541915505380656,6.528197227778367e-06,5.67,4.44,3.434846576055861e-06,-3.195206227246672e-05,1.5243902206420898,-0.005859375,0.03271484375,0.12878327057486685,0.0060013499557661516,0.18401090441752133,0.005225876148940274,1.3413780318997315,1.342112021754643
1624633606.126456,0.021541915505380656,6.528197227778367e-06,5.67,4.44,3.434846576055861e-06,-3.195206227246672e-05,1.5243902206420898,-0.005859375,0.03271484375,0.11108319037563132,0.0029281495472704244,0.17622216984539313,0.005447942793258696,1.3413352159281202,1.3419979504581827
1624633606.196456,0.016246711742134955,6.7863555685434095e-06,5.67,4.44,3.434846576055861e-06,-3.195206227246672e-05,1.5243902206420898,-0.005859375,0.03271484375,0.11108319037563132,0.0029281495472704244,0.17622216984539313,0.005447942793258696,1.3413352159281202,1.3419979504581827
1624633606.196456,0.016246711742134955,6.7863555685434095e-06,5.67,4.44,3.434846576055861e-06,-3.195206227246672e-05,1.5243902206420898,-0.005859375,0.03271484375,0.11108319037563132,0.0029281495472704244,0.16763965935094668,0.004340405876794512,1.3413352159281202,1.3421735044519416
1624633606.196456,0.016246711742134955,6.7863555685434095e-06,5.67,4.44,3.434846576055861e-06,-3.195206227246672e-05,1.5243902206420898,-0.005859375,0.03271484375,0.11108319037563132,0.0029281495472704244,0.16763965935094668,0.004340405876794512,1.3413352159281202,1.3421735044519416
1624633606.196456,0.016246711742134955,6.7863555685434095e-06,5.67,4.44,3.434846576055861e-06,-3.195206227246672e-05,1.5243902206420898,-0.005859375,0.03271484375,0.11108319037563132,0.0029281495472704244,0.16763965935094668,0.004340405876794512,1.3413352159281202,1.3421735044519416
1624633606.196456,0.016246711742134955,6.7863555685434095e-06,5.67,4.44,3.434846576055861e-06,-3.195206227246672e-05,1.5243902206420898,-0.005859375,0.03271484375,0.09757641941265775,0.002772621624009323,0.16763965935094668,0.004340405876794512,1.3412751612914189,1.3421735044519416
