time,la_x,la_y,uwb_x,uwb_y,vel_linear_x,vel_angular_z,mpu_ang_vel_z,mpu_linear_acc_x,mpu_linear_acc_y,odom_linear_x,odom_angular_z,odom_filtered_linear_x,odom_filtered_angular_z,odom_yaw,odom_filtered_yaw
1624633816.817082,1.185614907198614e-06,-1.0378109894572983e-06,0.0,0.0,,,,,,,,2.8052223789906304e-06,0.0007036849832986711,,0.8570671887476546
1624633816.8550818,1.1500013846805104e-06,-1.0092527851380322e-06,5.77,4.94,7.43393502489198e-06,6.915288395248353e-05,,,,2.412836217921911e-06,0.0008236087813714948,2.7823834356065052e-06,0.0006989527080811099,0.8556726468269141,0.8570136010677543
1624633816.8550818,1.1500013846805104e-06,-1.0092527851380322e-06,5.77,4.94,7.43393502489198e-06,6.915288395248353e-05,1.402438998222351,-0.0244140625,0.0078125,2.412836217921911e-06,0.0008236087813714948,2.7823834356065052e-06,0.0006989527080811099,0.8556726468269141,0.8570136010677543
1624633816.8550818,1.1500013846805104e-06,-1.0092527851380322e-06,5.77,4.94,7.43393502489198e-06,6.915288395248353e-05,1.402438998222351,-0.0244140625,0.0078125,2.412836217921911e-06,0.0008236087813714948,2.7823834356065052e-06,0.0006989527080811099,0.8556726468269141,0.8570136010677543
1624633816.8550818,1.1500013846805104e-06,-1.0092527851380322e-06,5.77,4.94,7.43393502489198e-06,6.915288395248353e-05,1.402438998222351,-0.0244140625,0.0078125,2.412836217921911e-06,0.0008236087813714948,2.7823834356065052e-06,0.0006989527080811099,0.8556726468269141,0.8570136010677543
1624633816.8550818,1.1500013846805104e-06,-1.0092527851380322e-06,5.77,4.94,7.43393502489198e-06,6.915288395248353e-05,1.402438998222351,-0.0244140625,0.0078125,2.412836217921911e-06,0.0008236087813714948,2.7823834356065052e-06,0.0006989527080811099,0.8556726468269141,0.8570136010677543
1624633816.921082,1.1110858580301957e-06,-9.790529506030797e-07,5.77,4.94,7.43393502489198e-06,6.915288395248353e-05,1.402438998222351,-0.0244140625,0.0078125,2.3972241771941823e-06,0.0009447836827183577,2.784021196797535e-06,0.0007650787389946322,0.8556822794867232,0.8569939810568893
1624633816.921082,1.1110858580301957e-06,-9.790529506030797e-07,5.77,4.94,7.43393502489198e-06,6.915288395248353e-05,1.402438998222351,-0.0244140625,0.0078125,2.3972241771941823e-06,0.0009447836827183577,2.784021196797535e-06,0.0007650787389946322,0.8556822794867232,0.8569939810568893
1624633816.921082,1.1110858580301957e-06,-9.790529506030797e-07,5.77,4.94,7.43393502489198e-06,6.915288395248353e-05,1.402438998222351,-0.0244140625,0.0078125,2.3972241771941823e-06,0.0009447836827183577,2.784021196797535e-06,0.0007650787389946322,0.8556822794867232,0.8569939810568893
1624633816.921082,1.1110858580301957e-06,-9.790529506030797e-07,5.77,4.94,7.43393502489198e-06,6.915288395248353e-05,1.402438998222351,-0.0244140625,0.0078125,2.3972241771941823e-06,0.0009447836827183577,2.784021196797535e-06,0.0007650787389946322,0.8556822794867232,0.8569939810568893
1624633816.921082,1.1110858580301957e-06,-9.790529506030797e-07,5.78,4.95,7.43393502489198e-06,6.915288395248353e-05,1.402438998222351,-0.0244140625,0.0078125,2.4114679418563475e-06,0.0008911310656905392,2.784021196797535e-06,0.0007650787389946322,0.8556762747453032,0.8569939810568893
1624633816.975082,1.0743526484507422e-06,-9.492751689706086e-07,5.78,4.95,7.43393502489198e-06,6.915288395248353e-05,1.402438998222351,-0.0244140625,0.0078125,2.4114679418563475e-06,0.0008911310656905392,2.7738735838829673e-06,0.0007581866515317623,0.8556762747453032,0.8569572278997035
1624633816.975082,1.0743526484507422e-06,-9.492751689706086e-07,5.78,4.95,7.43393502489198e-06,6.915288395248353e-05,1.402438998222351,-0.0244140625,0.0078125,2.4114679418563475e-06,0.0008911310656905392,2.7738735838829673e-06,0.0007581866515317623,0.8556762747453032,0.8569572278997035
1624633816.975082,1.0743526484507422e-06,-9.492751689706086e-07,5.78,4.95,7.43393502489198e-06,6.915288395248353e-05,1.402438998222351,-0.0244140625,0.0078125,2.4114679418563475e-06,0.0008911310656905392,2.7738735838829673e-06,0.0007581866515317623,0.8556762747453032,0.8569572278997035
1624633816.975082,1.0743526484507422e-06,-9.492751689706086e-07,5.78,4.95,7.43393502489198e-06,6.915288395248353e-05,1.4634146690368652,-0.009765625,0.005859375,2.4114679418563475e-06,0.0008911310656905392,2.7738735838829673e-06,0.0007581866515317623,0.8556762747453032,0.8569572278997035
1624633816.975082,1.0743526484507422e-06,-9.492751689706086e-07,5.78,4.95,7.43393502489198e-06,6.915288395248353e-05,1.4634146690368652,-0.009765625,0.005859375,2.4114679418563475e-06,0.0008911310656905392,2.7738735838829673e-06,0.0007581866515317623,0.8556762747453032,0.8569572278997035
1624633816.975082,1.0478709179495506e-06,-9.278077574829687e-07,5.78,4.95,7.43393502489198e-06,6.915288395248353e-05,1.4634146690368652,-0.009765625,0.005859375,2.4114679418563475e-06,0.0008911310656905392,2.723303807929354e-06,0.0007591882814442736,0.8556762747453032,0.8568880889667584
1624633816.975082,1.0478709179495506e-06,-9.278077574829687e-07,5.78,4.95,7.43393502489198e-06,6.915288395248353e-05,1.4634146690368652,-0.009765625,0.005859375,2.4114679418563475e-06,0.0008911310656905392,2.723303807929354e-06,0.0007591882814442736,0.8556762747453032,0.8568880889667584
1624633816.975082,1.0478709179495506e-06,-9.278077574829687e-07,5.78,4.95,7.43393502489198e-06,6.915288395248353e-05,1.4634146690368652,-0.009765625,0.005859375,2.4114679418563475e-06,0.0008911310656905392,2.723303807929354e-06,0.0007591882814442736,0.8556762747453032,0.8568880889667584
1624633816.975082,1.0478709179495506e-06,-9.278077574829687e-07,5.78,4.95,7.43393502489198e-06,6.915288395248353e-05,1.4634146690368652,-0.009765625,0.005859375,2.4114679418563475e-06,0.0008911310656905392,2.723303807929354e-06,0.0007591882814442736,0.8556762747453032,0.8568880889667584
1624633816.975082,1.0478709179495506e-06,-9.278077574829687e-07,5.78,4.95,7.43393502489198e-06,6.915288395248353e-05,1.4634146690368652,-0.009765625,0.005859375,2.411823346880696e-06,0.0010548531413615526,2.723303807929354e-06,0.0007591882814442736,0.8556820456057468,0.8568880889667584
1624633817.0350819,1.0188633251458942e-06,-9.041465970347768e-07,5.77,4.95,7.43393502489198e-06,6.915288395248353e-05,1.402438998222351,-0.0126953125,0.0126953125,2.411823346880696e-06,0.0010548531413615526,2.730942007504548e-06,0.0008383114237557811,0.8556820456057468,0.8568704716541375
1624633817.0350819,1.0188633251458942e-06,-9.041465970347768e-07,5.77,4.95,7.43393502489198e-06,6.915288395248353e-05,1.402438998222351,-0.0126953125,0.0126953125,2.411823346880696e-06,0.0010548531413615526,2.730942007504548e-06,0.0008383114237557811,0.8556820456057468,0.8568704716541375
1624633817.0350819,1.0188633251458942e-06,-9.041465970347768e-07,5.77,4.95,7.43393502489198e-06,6.915288395248353e-05,1.402438998222351,-0.0126953125,0.0126953125,2.411823346880696e-06,0.0010548531413615526,2.730942007504548e-06,0.0008383114237557811,0.8556820456057468,0.8568704716541375
1624633817.0350819,1.0188633251458942e-06,-9.041465970347768e-07,5.77,4.95,7.43393502489198e-06,6.915288395248353e-05,1.402438998222351,-0.0126953125,0.0126953125,2.411823346880696e-06,0.0010548531413615526,2.730942007504548e-06,0.0008383114237557811,0.8556820456057468,0.8568704716541375
1624633817.0350819,1.0188633251458942e-06,-9.041465970347768e-07,5.77,4.95,7.43393502489198e-06,6.915288395248353e-05,1.402438998222351,-0.0126953125,0.0126953125,2.377001329335471e-06,0.0008670966777124745,2.730942007504548e-06,0.0008383114237557811,0.8556902281063669,0.8568704716541375
1624633817.109082,9.833920037093718e-07,-8.77548399998815e-07,5.77,4.95,7.43393502489198e-06,6.915288395248353e-05,1.402438998222351,-0.0126953125,0.0126953125,2.377001329335471e-06,0.0008670966777124745,2.7387477679210356e-06,0.0008202382059380915,0.8556902281063669,0.8568776642173784
1624633817.109082,9.833920037093718e-07,-8.77548399998815e-07,5.77,4.95,7.43393502489198e-06,6.915288395248353e-05,1.402438998222351,-0.0126953125,0.0126953125,2.377001329335471e-06,0.0008670966777124745,2.7387477679210356e-06,0.0008202382059380915,0.8556902281063669,0.8568776642173784
1624633817.109082,9.833920037093718e-07,-8.77548399998815e-07,5.77,4.95,7.43393502489198e-06,6.915288395248353e-05,1.402438998222351,-0.0126953125,0.0126953125,2.377001329335471e-06,0.0008670966777124745,2.7387477679210356e-06,0.0008202382059380915,0.8556902281063669,0.8568776642173784
1624633817.109082,9.833920037093718e-07,-8.77548399998815e-07,5.77,4.95,7.43393502489198e-06,6.915288395248353e-05,1.402438998222351,-0.0126953125,0.0126953125,2.377001329335471e-06,0.0008670966777124745,2.7387477679210356e-06,0.0008202382059380915,0.8556902281063669,0.8568776642173784
1624633817.109082,9.833920037093718e-07,-8.77548399998815e-07,5.77,4.94,7.43393502489198e-06,6.915288395248353e-05,1.402438998222351,-0.0126953125,0.0126953125,2.4115599030699296e-06,0.0008249738699767011,2.7387477679210356e-06,0.0008202382059380915,0.8556752998214321,0.8568776642173784
1624633817.155082,9.526658091162652e-07,-8.518182088308301e-07,5.77,4.94,7.6197839007363655e-06,7.088170968927443e-05,1.4634146690368652,-0.0185546875,0.0009765625,2.4115599030699296e-06,0.0008249738699767011,2.72544169155538e-06,0.0007796837947259994,0.8556752998214321,0.8568441837823837
1624633817.155082,9.526658091162652e-07,-8.518182088308301e-07,5.77,4.94,7.6197839007363655e-06,7.088170968927443e-05,1.4634146690368652,-0.0185546875,0.0009765625,2.4115599030699296e-06,0.0008249738699767011,2.72544169155538e-06,0.0007796837947259994,0.8556752998214321,0.8568441837823837
1624633817.155082,9.526658091162652e-07,-8.518182088308301e-07,5.77,4.94,7.6197839007363655e-06,7.088170968927443e-05,1.4634146690368652,-0.0185546875,0.0009765625,2.4115599030699296e-06,0.0008249738699767011,2.72544169155538e-06,0.0007796837947259994,0.8556752998214321,0.8568441837823837
1624633817.155082,9.526658091162652e-07,-8.518182088308301e-07,5.77,4.94,7.6197839007363655e-06,7.088170968927443e-05,1.4634146690368652,-0.0185546875,0.0009765625,2.4115599030699296e-06,0.0008249738699767011,2.72544169155538e-06,0.0007796837947259994,0.8556752998214321,0.8568441837823837
1624633817.155082,9.526658091162652e-07,-8.518182088308301e-07,5.77,4.94,7.6197839007363655e-06,7.088170968927443e-05,1.4634146690368652,-0.0185546875,0.0009765625,2.4115599030699296e-06,0.0008249738699767011,2.72544169155538e-06,0.0007796837947259994,0.8556752998214321,0.8568441837823837
1624633817.215082,9.212832923762438e-07,-8.254783875140399e-07,5.77,4.94,7.6197839007363655e-06,7.088170968927443e-05,1.4634146690368652,-0.0185546875,0.0009765625,2.4108797758706746e-06,0.0009798924769231403,2.722763049243093e-06,0.0008266315100721137,0.855678852933684,0.8568265085420864
1624633817.215082,9.212832923762438e-07,-8.254783875140399e-07,5.77,4.94,7.43393502489198e-06,6.915288395248353e-05,1.4634146690368652,-0.0185546875,0.0009765625,2.4108797758706746e-06,0.0009798924769231403,2.722763049243093e-06,0.0008266315100721137,0.855678852933684,0.8568265085420864
1624633817.215082,9.212832923762438e-07,-8.254783875140399e-07,5.77,4.94,7.43393502489198e-06,6.915288395248353e-05,1.4634146690368652,-0.0185546875,0.0009765625,2.4108797758706746e-06,0.0009798924769231403,2.722763049243093e-06,0.0008266315100721137,0.855678852933684,0.8568265085420864
1624633817.215082,9.212832923762438e-07,-8.254783875140399e-07,5.77,4.94,7.43393502489198e-06,6.915288395248353e-05,1.4634146690368652,-0.0185546875,0.0009765625,2.4108797758706746e-06,0.0009798924769231403,2.722763049243093e-06,0.0008266315100721137,0.855678852933684,0.8568265085420864
1624633817.215082,9.212832923762438e-07,-8.254783875140399e-07,5.77,4.88,7.43393502489198e-06,6.915288395248353e-05,1.4634146690368652,-0.0185546875,0.0009765625,2.4098676426661306e-06,0.0009184374471125972,2.722763049243093e-06,0.0008266315100721137,0.8556778414628424,0.8568265085420864
1624633817.2750819,8.896986717502993e-07,-7.989129906832619e-07,5.77,4.88,7.43393502489198e-06,6.915288395248353e-05,1.4634146690368652,-0.0185546875,0.0009765625,2.4098676426661306e-06,0.0009184374471125972,2.717741240180719e-06,0.0008134524665007658,0.8556778414628424,0.8568080749756873
1624633817.2750819,8.896986717502993e-07,-7.989129906832619e-07,5.77,4.88,7.43393502489198e-06,6.915288395248353e-05,1.4634146690368652,-0.0087890625,0.0146484375,2.4098676426661306e-06,0.0009184374471125972,2.717741240180719e-06,0.0008134524665007658,0.8556778414628424,0.8568080749756873
1624633817.2750819,8.896986717502993e-07,-7.989129906832619e-07,5.77,4.88,7.43393502489198e-06,6.915288395248353e-05,1.4634146690368652,-0.0087890625,0.0146484375,2.4098676426661306e-06,0.0009184374471125972,2.717741240180719e-06,0.0008134524665007658,0.8556778414628424,0.8568080749756873
1624633817.2750819,8.896986717502993e-07,-7.989129906832619e-07,5.77,4.88,7.43393502489198e-06,6.915288395248353e-05,1.4634146690368652,-0.0087890625,0.0146484375,2.4098676426661306e-06,0.0009184374471125972,2.717741240180719e-06,0.0008134524665007658,0.8556778414628424,0.8568080749756873
1624633817.2750819,8.896986717502993e-07,-7.989129906832619e-07,5.77,4.88,7.43393502489198e-06,6.915288395248353e-05,1.4634146690368652,-0.0087890625,0.0146484375,2.308652307880516e-06,0.001019935050881958,2.717741240180719e-06,0.0008134524665007658,0.8557232139454269,0.8568080749756873
1624633817.317082,8.541299848432089e-07,-7.761889076846673e-07,5.77,4.88,7.43393502489198e-06,6.915288395248353e-05,1.4634146690368652,-0.0087890625,0.0146484375,2.308652307880516e-06,0.001019935050881958,2.6872131756296647e-06,0.0008797120673894694,0.8557232139454269,0.8568135065553778
1624633817.317082,8.541299848432089e-07,-7.761889076846673e-07,5.77,4.88,7.43393502489198e-06,6.915288395248353e-05,1.4634146690368652,-0.0087890625,0.0146484375,2.308652307880516e-06,0.001019935050881958,2.6872131756296647e-06,0.0008797120673894694,0.8557232139454269,0.8568135065553778
1624633817.317082,8.541299848432089e-07,-7.761889076846673e-07,5.77,4.88,7.43393502489198e-06,6.915288395248353e-05,1.4634146690368652,-0.0087890625,0.0146484375,2.308652307880516e-06,0.001019935050881958,2.6872131756296647e-06,0.0008797120673894694,0.8557232139454269,0.8568135065553778
1624633817.317082,8.541299848432089e-07,-7.761889076846673e-07,5.77,4.88,7.6197839007363655e-06,7.088170968927443e-05,1.4634146690368652,-0.0087890625,0.0146484375,2.308652307880516e-06,0.001019935050881958,2.6872131756296647e-06,0.0008797120673894694,0.8557232139454269,0.8568135065553778
1624633817.317082,8.541299848432089e-07,-7.761889076846673e-07,5.77,4.89,7.6197839007363655e-06,7.088170968927443e-05,1.4634146690368652,-0.0087890625,0.0146484375,2.4111228313020536e-06,0.0009990640457946264,2.6872131756296647e-06,0.0008797120673894694,0.8556809672751152,0.8568135065553778
1624633817.3350818,8.31950235785015e-07,-7.562662811009629e-07,5.77,4.89,7.6197839007363655e-06,7.088170968927443e-05,1.4634146690368652,-0.0087890625,0.0146484375,2.4111228313020536e-06,0.0009990640457946264,2.6602943966049647e-06,0.0008850624536526377,0.8556809672751152,0.8567673359498731
1624633817.3350818,8.31950235785015e-07,-7.562662811009629e-07,5.77,4.89,7.6197839007363655e-06,7.088170968927443e-05,1.402438998222351,-0.00732421875,0.00244140625,2.4111228313020536e-06,0.0009990640457946264,2.6602943966049647e-06,0.0008850624536526377,0.8556809672751152,0.8567673359498731
1624633817.3350818,8.31950235785015e-07,-7.562662811009629e-07,5.77,4.89,7.6197839007363655e-06,7.088170968927443e-05,1.402438998222351,-0.00732421875,0.00244140625,2.4111228313020536e-06,0.0009990640457946264,2.6602943966049647e-06,0.0008850624536526377,0.8556809672751152,0.8567673359498731
1624633817.3350818,8.31950235785015e-07,-7.562662811009629e-07,5.77,4.89,7.6197839007363655e-06,7.088170968927443e-05,1.402438998222351,-0.00732421875,0.00244140625,2.4111228313020536e-06,0.0009990640457946264,2.6602943966049647e-06,0.0008850624536526377,0.8556809672751152,0.8567673359498731
1624633817.3350818,8.31950235785015e-07,-7.562662811009629e-07,5.77,4.89,7.43393502489198e-06,6.915288395248353e-05,1.402438998222351,-0.00732421875,0.00244140625,2.347548751189939e-06,0.0009561573317907626,2.6602943966049647e-06,0.0008850624536526377,0.8557051932510046,0.8567673359498731
1624633817.421082,8.000089491887197e-07,-7.327013719378269e-07,5.77,4.89,7.43393502489198e-06,6.915288395248353e-05,1.402438998222351,-0.00732421875,0.00244140625,2.347548751189939e-06,0.0009561573317907626,2.670843626572189e-06,0.0008924038652534926,0.8557051932510046,0.8568015160180611
1624633817.421082,8.000089491887197e-07,-7.327013719378269e-07,5.77,4.89,7.43393502489198e-06,6.915288395248353e-05,1.402438998222351,-0.00732421875,0.00244140625,2.347548751189939e-06,0.0009561573317907626,2.670843626572189e-06,0.0008924038652534926,0.8557051932510046,0.8568015160180611
1624633817.421082,8.000089491887197e-07,-7.327013719378269e-07,5.77,4.89,7.43393502489198e-06,6.915288395248353e-05,1.402438998222351,-0.00732421875,0.00244140625,2.347548751189939e-06,0.0009561573317907626,2.670843626572189e-06,0.0008924038652534926,0.8557051932510046,0.8568015160180611
1624633817.421082,8.000089491887197e-07,-7.327013719378269e-07,5.77,4.89,7.43393502489198e-06,6.915288395248353e-05,1.402438998222351,-0.00732421875,0.00244140625,2.347548751189939e-06,0.0009561573317907626,2.670843626572189e-06,0.0008924038652534926,0.8557051932510046,0.8568015160180611
1624633817.455082,7.767953579078737e-07,-7.110424683206992e-07,5.78,4.9,7.43393502489198e-06,6.915288395248353e-05,1.402438998222351,-0.00732421875,0.00244140625,2.411835366340136e-06,0.0009210065558198558,2.653741822971929e-06,0.0008648107284051888,0.8556789283498695,0.8567653789544161
1624633817.455082,7.767953579078737e-07,-7.110424683206992e-07,5.78,4.9,7.43393502489198e-06,6.915288395248353e-05,1.402438998222351,-0.00732421875,0.00244140625,2.411835366340136e-06,0.0009210065558198558,2.653741822971929e-06,0.0008648107284051888,0.8556789283498695,0.8567653789544161
1624633817.455082,7.767953579078737e-07,-7.110424683206992e-07,5.78,4.9,7.43393502489198e-06,6.915288395248353e-05,1.402438998222351,-0.00732421875,0.00244140625,2.411835366340136e-06,0.0009210065558198558,2.653741822971929e-06,0.0008648107284051888,0.8556789283498695,0.8567653789544161
1624633817.455082,7.767953579078737e-07,-7.110424683206992e-07,5.78,4.9,7.43393502489198e-06,6.915288395248353e-05,1.402438998222351,-0.01953125,0.009765625,2.411835366340136e-06,0.0009210065558198558,2.653741822971929e-06,0.0008648107284051888,0.8556789283498695,0.8567653789544161
1624633817.455082,7.767953579078737e-07,-7.110424683206992e-07,5.78,4.9,7.43393502489198e-06,6.915288395248353e-05,1.402438998222351,-0.01953125,0.009765625,2.411835366340136e-06,0.0009210065558198558,2.653741822971929e-06,0.0008648107284051888,0.8556789283498695,0.8567653789544161
1624633817.515082,7.526545989121777e-07,-6.887011653571104e-07,5.78,4.9,7.43393502489198e-06,6.915288395248353e-05,1.402438998222351,-0.01953125,0.009765625,2.4108745337585565e-06,0.0008625548901534212,2.6542759516198077e-06,0.0008183278345526723,0.8556763979691929,0.8567500701954337
1624633817.515082,7.526545989121777e-07,-6.887011653571104e-07,5.78,4.9,7.43393502489198e-06,6.915288395248353e-05,1.402438998222351,-0.01953125,0.009765625,2.4108745337585565e-06,0.0008625548901534212,2.6542759516198077e-06,0.0008183278345526723,0.8556763979691929,0.8567500701954337
1624633817.515082,7.526545989121777e-07,-6.887011653571104e-07,5.78,4.9,7.43393502489198e-06,6.915288395248353e-05,1.402438998222351,-0.01953125,0.009765625,2.4108745337585565e-06,0.0008625548901534212,2.6542759516198077e-06,0.0008183278345526723,0.8556763979691929,0.8567500701954337
1624633817.515082,7.526545989121777e-07,-6.887011653571104e-07,5.78,4.9,7.43393502489198e-06,6.915288395248353e-05,1.402438998222351,-0.01953125,0.009765625,2.4108745337585565e-06,0.0008625548901534212,2.6542759516198077e-06,0.0008183278345526723,0.8556763979691929,0.8567500701954337
1624633817.515082,7.526545989121777e-07,-6.887011653571104e-07,5.78,4.9,7.43393502489198e-06,6.915288395248353e-05,1.402438998222351,-0.01953125,0.009765625,2.4108745337585565e-06,0.0008625548901534212,2.6542759516198077e-06,0.0008183278345526723,0.8556763979691929,0.8567500701954337
1624633817.5750818,7.28147302812779e-07,-6.660460244709143e-07,5.77,4.92,7.43393502489198e-06,6.915288395248353e-05,1.402438998222351,-0.01220703125,0.0048828125,2.4112974784797506e-06,0.0008932683685641657,2.6526263074087053e-06,0.000798773379969967,0.8556774607744221,0.8567340993122343
1624633817.5750818,7.28147302812779e-07,-6.660460244709143e-07,5.77,4.92,7.43393502489198e-06,6.915288395248353e-05,1.402438998222351,-0.01220703125,0.0048828125,2.4112974784797506e-06,0.0008932683685641657,2.6526263074087053e-06,0.000798773379969967,0.8556774607744221,0.8567340993122343
1624633817.5750818,7.28147302812779e-07,-6.660460244709143e-07,5.77,4.92,7.43393502489198e-06,6.915288395248353e-05,1.402438998222351,-0.01220703125,0.0048828125,2.4112974784797506e-06,0.0008932683685641657,2.6526263074087053e-06,0.000798773379969967,0.8556774607744221,0.8567340993122343
1624633817.5750818,7.28147302812779e-07,-6.660460244709143e-07,5.77,4.92,7.43393502489198e-06,6.915288395248353e-05,1.402438998222351,-0.01220703125,0.0048828125,2.4112974784797506e-06,0.0008932683685641657,2.6526263074087053e-06,0.000798773379969967,0.8556774607744221,0.8567340993122343
1624633817.5750818,7.28147302812779e-07,-6.660460244709143e-07,5.77,4.92,7.43393502489198e-06,6.915288395248353e-05,1.402438998222351,-0.01220703125,0.0048828125,2.4112974784797506e-06,0.0008932683685641657,2.6526263074087053e-06,0.000798773379969967,0.8556774607744221,0.8567340993122343
1624633817.609082,7.009696813329273e-07,-6.472733435752921e-07,5.77,4.92,7.43393502489198e-06,6.915288395248353e-05,1.402438998222351,-0.01220703125,0.0048828125,2.3293136228168815e-06,0.0007445294114222049,2.6255139422377237e-06,0.0007531436766228818,0.8557001774044128,0.856723099276891
1624633817.609082,7.009696813329273e-07,-6.472733435752921e-07,5.77,4.92,7.43393502489198e-06,6.915288395248353e-05,1.402438998222351,-0.01220703125,0.0048828125,2.3293136228168815e-06,0.0007445294114222049,2.6255139422377237e-06,0.0007531436766228818,0.8557001774044128,0.856723099276891
1624633817.609082,7.009696813329273e-07,-6.472733435752921e-07,5.77,4.92,7.43393502489198e-06,6.915288395248353e-05,1.402438998222351,-0.01220703125,0.0048828125,2.3293136228168815e-06,0.0007445294114222049,2.6255139422377237e-06,0.0007531436766228818,0.8557001774044128,0.856723099276891
1624633817.609082,7.009696813329273e-07,-6.472733435752921e-07,5.77,4.92,7.43393502489198e-06,6.915288395248353e-05,1.402438998222351,-0.01220703125,0.0048828125,2.3293136228168815e-06,0.0007445294114222049,2.6255139422377237e-06,0.0007531436766228818,0.8557001774044128,0.856723099276891
1624633817.609082,7.009696813329273e-07,-6.472733435752921e-07,5.77,4.92,7.43393502489198e-06,6.915288395248353e-05,1.402438998222351,-0.01220703125,0.0048828125,2.3293136228168815e-06,0.0007445294114222049,2.6255139422377237e-06,0.0007531436766228818,0.8557001774044128,0.856723099276891
1624633817.635082,6.833974933681902e-07,-6.300155202723487e-07,5.78,4.93,7.43393502489198e-06,6.915288395248353e-05,1.402438998222351,-0.01220703125,0.0048828125,2.4128494854874855e-06,0.0007232876598582807,2.610253284062648e-06,0.0007111255886757138,0.8556712601744398,0.8566810490721625
1624633817.635082,6.833974933681902e-07,-6.300155202723487e-07,5.78,4.93,7.43393502489198e-06,6.915288395248353e-05,1.3414634466171265,-0.0107421875,0.0,2.4128494854874855e-06,0.0007232876598582807,2.610253284062648e-06,0.0007111255886757138,0.8556712601744398,0.8566810490721625
1624633817.635082,6.833974933681902e-07,-6.300155202723487e-07,5.78,4.93,7.43393502489198e-06,6.915288395248353e-05,1.3414634466171265,-0.0107421875,0.0,2.4128494854874855e-06,0.0007232876598582807,2.610253284062648e-06,0.0007111255886757138,0.8556712601744398,0.8566810490721625
1624633817.635082,6.833974933681902e-07,-6.300155202723487e-07,5.78,4.93,7.43393502489198e-06,6.915288395248353e-05,1.3414634466171265,-0.0107421875,0.0,2.4128494854874855e-06,0.0007232876598582807,2.610253284062648e-06,0.0007111255886757138,0.8556712601744398,0.8566810490721625
1624633817.635082,6.833974933681902e-07,-6.300155202723487e-07,5.78,4.93,7.43393502489198e-06,6.915288395248353e-05,1.3414634466171265,-0.0107421875,0.0,2.4128494854874855e-06,0.0007232876598582807,2.610253284062648e-06,0.0007111255886757138,0.8556712601744398,0.8566810490721625
1624633817.7130818,6.591520864548965e-07,-6.102597192467642e-07,5.78,4.93,7.256936896737898e-06,6.750638567609712e-05,1.3414634466171265,-0.0107421875,0.0,2.368355028018969e-06,0.0008169030607323332,2.617330886707015e-06,0.0007340867807458866,0.8556869051979258,0.8566943145519068
1624633817.7130818,6.591520864548965e-07,-6.102597192467642e-07,5.78,4.93,7.256936896737898e-06,6.750638567609712e-05,1.3414634466171265,-0.0107421875,0.0,2.368355028018969e-06,0.0008169030607323332,2.617330886707015e-06,0.0007340867807458866,0.8556869051979258,0.8566943145519068
1624633817.7130818,6.591520864548965e-07,-6.102597192467642e-07,5.78,4.93,7.256936896737898e-06,6.750638567609712e-05,1.3414634466171265,-0.0107421875,0.0,2.368355028018969e-06,0.0008169030607323332,2.617330886707015e-06,0.0007340867807458866,0.8556869051979258,0.8566943145519068
1624633817.7130818,6.591520864548965e-07,-6.102597192467642e-07,5.78,4.93,7.256936896737898e-06,6.750638567609712e-05,1.3414634466171265,-0.0107421875,0.0,2.368355028018969e-06,0.0008169030607323332,2.617330886707015e-06,0.0007340867807458866,0.8556869051979258,0.8566943145519068
1624633817.7130818,6.591520864548965e-07,-6.102597192467642e-07,5.78,4.93,7.256936896737898e-06,6.750638567609712e-05,1.3414634466171265,-0.0107421875,0.0,2.368355028018969e-06,0.0008169030607323332,2.617330886707015e-06,0.0007340867807458866,0.8556869051979258,0.8566943145519068
1624633817.755082,6.402125527991461e-07,-5.913693732786242e-07,5.78,4.95,7.256936896737898e-06,6.750638567609712e-05,1.3414634466171265,-0.0107421875,0.0,2.412798205050226e-06,0.0007804335281364546,2.6089213624760074e-06,0.0007153560287312927,0.8556715764554305,0.856664679137421
1624633817.755082,6.402125527991461e-07,-5.913693732786242e-07,5.78,4.95,7.43393502489198e-06,6.915288395248353e-05,1.3414634466171265,-0.0107421875,0.0,2.412798205050226e-06,0.0007804335281364546,2.6089213624760074e-06,0.0007153560287312927,0.8556715764554305,0.856664679137421
1624633817.755082,6.402125527991461e-07,-5.913693732786242e-07,5.78,4.95,7.43393502489198e-06,6.915288395248353e-05,1.402438998222351,-0.01171875,0.0107421875,2.412798205050226e-06,0.0007804335281364546,2.6089213624760074e-06,0.0007153560287312927,0.8556715764554305,0.856664679137421
1624633817.755082,6.402125527991461e-07,-5.913693732786242e-07,5.78,4.95,7.43393502489198e-06,6.915288395248353e-05,1.402438998222351,-0.01171875,0.0107421875,2.412798205050226e-06,0.0007804335281364546,2.6089213624760074e-06,0.0007153560287312927,0.8556715764554305,0.856664679137421
1624633817.755082,6.402125527991461e-07,-5.913693732786242e-07,5.78,4.95,7.43393502489198e-06,6.915288395248353e-05,1.402438998222351,-0.01171875,0.0107421875,2.412798205050226e-06,0.0007804335281364546,2.6089213624760074e-06,0.0007153560287312927,0.8556715764554305,0.856664679137421
1624633817.817082,6.199016168607867e-07,-5.718325375623199e-07,5.78,4.95,7.43393502489198e-06,6.915288395248353e-05,1.402438998222351,-0.01171875,0.0107421875,2.4068154206559076e-06,0.0009360877489509609,2.609882098928872e-06,0.0007785991037283764,0.8556778863210858,0.8566569795909852
1624633817.817082,6.199016168607867e-07,-5.718325375623199e-07,5.78,4.95,7.43393502489198e-06,6.915288395248353e-05,1.402438998222351,-0.01171875,0.0107421875,2.4068154206559076e-06,0.0009360877489509609,2.609882098928872e-06,0.0007785991037283764,0.8556778863210858,0.8566569795909852
1624633817.817082,6.199016168607867e-07,-5.718325375623199e-07,5.78,4.95,7.43393502489198e-06,6.915288395248353e-05,1.402438998222351,-0.01171875,0.0107421875,2.4068154206559076e-06,0.0009360877489509609,2.609882098928872e-06,0.0007785991037283764,0.8556778863210858,0.8566569795909852
1624633817.817082,6.199016168607867e-07,-5.718325375623199e-07,5.78,4.95,7.43393502489198e-06,6.915288395248353e-05,1.402438998222351,-0.01171875,0.0107421875,2.4068154206559076e-06,0.0009360877489509609,2.609882098928872e-06,0.0007785991037283764,0.8556778863210858,0.8566569795909852
1624633817.817082,6.199016168607867e-07,-5.718325375623199e-07,5.78,4.95,7.43393502489198e-06,6.915288395248353e-05,1.402438998222351,-0.01171875,0.0107421875,2.4068154206559076e-06,0.0009360877489509609,2.609882098928872e-06,0.0007785991037283764,0.8556778863210858,0.8566569795909852
1624633817.875082,5.998773012800745e-07,-5.522761744175885e-07,5.78,4.94,7.43393502489198e-06,6.915288395248353e-05,1.402438998222351,-0.01171875,0.0107421875,2.4108109830032945e-06,0.0008792206087019802,2.60761460583252e-06,0.0007752360207640729,0.855675614519612,0.8566435469902076
1624633817.875082,5.998773012800745e-07,-5.522761744175885e-07,5.78,4.94,7.43393502489198e-06,6.915288395248353e-05,1.4634146690368652,-0.009765625,0.00537109375,2.4108109830032945e-06,0.0008792206087019802,2.60761460583252e-06,0.0007752360207640729,0.855675614519612,0.8566435469902076
1624633817.875082,5.998773012800745e-07,-5.522761744175885e-07,5.78,4.94,7.43393502489198e-06,6.915288395248353e-05,1.4634146690368652,-0.009765625,0.00537109375,2.4108109830032945e-06,0.0008792206087019802,2.60761460583252e-06,0.0007752360207640729,0.855675614519612,0.8566435469902076
1624633817.875082,5.998773012800745e-07,-5.522761744175885e-07,5.78,4.94,7.43393502489198e-06,6.915288395248353e-05,1.4634146690368652,-0.009765625,0.00537109375,2.4108109830032945e-06,0.0008792206087019802,2.60761460583252e-06,0.0007752360207640729,0.855675614519612,0.8566435469902076
1624633817.875082,5.998773012800745e-07,-5.522761744175885e-07,5.78,4.94,7.43393502489198e-06,6.915288395248353e-05,1.4634146690368652,-0.009765625,0.00537109375,2.4108109830032945e-06,0.0008792206087019802,2.60761460583252e-06,0.0007752360207640729,0.855675614519612,0.8566435469902076
1624633817.921082,5.731255172948426e-07,-5.354241247348479e-07,5.78,4.94,7.43393502489198e-06,6.915288395248353e-05,1.4634146690368652,-0.009765625,0.00537109375,2.2999133930851797e-06,0.0008895948827901477,2.584144593068619e-06,0.0008062423780234178,0.8557173976426634,0.8566534011961813
1624633817.921082,5.731255172948426e-07,-5.354241247348479e-07,5.78,4.94,7.43393502489198e-06,6.915288395248353e-05,1.4634146690368652,-0.009765625,0.00537109375,2.2999133930851797e-06,0.0008895948827901477,2.584144593068619e-06,0.0008062423780234178,0.8557173976426634,0.8566534011961813
1624633817.921082,5.731255172948426e-07,-5.354241247348479e-07,5.78,4.94,7.43393502489198e-06,6.915288395248353e-05,1.4634146690368652,-0.009765625,0.00537109375,2.2999133930851797e-06,0.0008895948827901477,2.584144593068619e-06,0.0008062423780234178,0.8557173976426634,0.8566534011961813
1624633817.921082,5.731255172948426e-07,-5.354241247348479e-07,5.78,4.94,7.6197839007363655e-06,7.088170968927443e-05,1.4634146690368652,-0.009765625,0.00537109375,2.2999133930851797e-06,0.0008895948827901477,2.584144593068619e-06,0.0008062423780234178,0.8557173976426634,0.8566534011961813
1624633817.921082,5.731255172948426e-07,-5.354241247348479e-07,5.78,4.94,7.6197839007363655e-06,7.088170968927443e-05,1.4634146690368652,-0.009765625,0.00537109375,2.2999133930851797e-06,0.0008895948827901477,2.584144593068619e-06,0.0008062423780234178,0.8557173976426634,0.8566534011961813
1624633817.935082,5.594798607288629e-07,-5.20772553041953e-07,5.78,4.93,7.6197839007363655e-06,7.088170968927443e-05,1.4634146690368652,-0.009765625,0.00537109375,2.4116124180859275e-06,0.0008749072857710239,2.566144405064603e-06,0.0008000233239026176,0.8556759090407473,0.8566097354202209
1624633817.935082,5.594798607288629e-07,-5.20772553041953e-07,5.78,4.93,7.6197839007363655e-06,7.088170968927443e-05,1.4634146690368652,-0.009765625,0.00537109375,2.4116124180859275e-06,0.0008749072857710239,2.566144405064603e-06,0.0008000233239026176,0.8556759090407473,0.8566097354202209
1624633817.935082,5.594798607288629e-07,-5.20772553041953e-07,5.78,4.93,7.6197839007363655e-06,7.088170968927443e-05,1.402438998222351,-0.01513671875,0.0009765625,2.4116124180859275e-06,0.0008749072857710239,2.566144405064603e-06,0.0008000233239026176,0.8556759090407473,0.8566097354202209
1624633817.935082,5.594798607288629e-07,-5.20772553041953e-07,5.78,4.93,7.6197839007363655e-06,7.088170968927443e-05,1.402438998222351,-0.01513671875,0.0009765625,2.4116124180859275e-06,0.0008749072857710239,2.566144405064603e-06,0.0008000233239026176,0.8556759090407473,0.8566097354202209
1624633817.935082,5.594798607288629e-07,-5.20772553041953e-07,5.78,4.93,7.256936896737898e-06,6.750638567609712e-05,1.402438998222351,-0.01513671875,0.0009765625,2.4116124180859275e-06,0.0008749072857710239,2.566144405064603e-06,0.0008000233239026176,0.8556759090407473,0.8566097354202209
1624633817.995082,5.444739361544464e-07,-5.050440631766784e-07,5.78,4.93,7.256936896737898e-06,6.750638567609712e-05,1.402438998222351,-0.01513671875,0.0009765625,2.4105902630061844e-06,0.0008196915586028186,2.5711430338613634e-06,0.0007727182959437805,0.8556739539947372,0.8566016730762286
1624633817.995082,5.444739361544464e-07,-5.050440631766784e-07,5.78,4.93,7.256936896737898e-06,6.750638567609712e-05,1.402438998222351,-0.01513671875,0.0009765625,2.4105902630061844e-06,0.0008196915586028186,2.5711430338613634e-06,0.0007727182959437805,0.8556739539947372,0.8566016730762286
1624633817.995082,5.444739361544464e-07,-5.050440631766784e-07,5.78,4.93,7.256936896737898e-06,6.750638567609712e-05,1.402438998222351,-0.01513671875,0.0009765625,2.4105902630061844e-06,0.0008196915586028186,2.5711430338613634e-06,0.0007727182959437805,0.8556739539947372,0.8566016730762286
1624633817.995082,5.444739361544464e-07,-5.050440631766784e-07,5.78,4.93,7.256936896737898e-06,6.750638567609712e-05,1.402438998222351,-0.01513671875,0.0009765625,2.4105902630061844e-06,0.0008196915586028186,2.5711430338613634e-06,0.0007727182959437805,0.8556739539947372,0.8566016730762286
1624633817.995082,5.444739361544464e-07,-5.050440631766784e-07,5.78,4.93,7.256936896737898e-06,6.750638567609712e-05,1.402438998222351,-0.01513671875,0.0009765625,2.4105902630061844e-06,0.0008196915586028186,2.5711430338613634e-06,0.0007727182959437805,0.8556739539947372,0.8566016730762286
1624633818.0550818,5.287301270784807e-07,-4.886290851064437e-07,5.78,4.94,7.43393502489198e-06,6.915288395248353e-05,1.402438998222351,-0.01513671875,0.0009765625,2.412179236631396e-06,0.000828737890395682,2.5738390464738965e-06,0.000758239528547711,0.855674319207166,0.8565929727348052
1624633818.0550818,5.287301270784807e-07,-4.886290851064437e-07,5.78,4.94,7.43393502489198e-06,6.915288395248353e-05,1.3414634466171265,-0.0126953125,0.015625,2.412179236631396e-06,0.000828737890395682,2.5738390464738965e-06,0.000758239528547711,0.855674319207166,0.8565929727348052
1624633818.0550818,5.287301270784807e-07,-4.886290851064437e-07,5.78,4.94,7.43393502489198e-06,6.915288395248353e-05,1.3414634466171265,-0.0126953125,0.015625,2.412179236631396e-06,0.000828737890395682,2.5738390464738965e-06,0.000758239528547711,0.855674319207166,0.8565929727348052
1624633818.0550818,5.287301270784807e-07,-4.886290851064437e-07,5.78,4.94,7.43393502489198e-06,6.915288395248353e-05,1.3414634466171265,-0.0126953125,0.015625,2.412179236631396e-06,0.000828737890395682,2.5738390464738965e-06,0.000758239528547711,0.855674319207166,0.8565929727348052
1624633818.0550818,5.287301270784807e-07,-4.886290851064437e-07,5.78,4.94,7.43393502489198e-06,6.915288395248353e-05,1.3414634466171265,-0.0126953125,0.015625,2.412179236631396e-06,0.000828737890395682,2.5738390464738965e-06,0.000758239528547711,0.855674319207166,0.8565929727348052
1624633818.115082,5.124421045873583e-07,-4.7185832828021064e-07,5.78,4.94,7.43393502489198e-06,6.915288395248353e-05,1.3414634466171265,-0.0126953125,0.015625,2.4121013563528845e-06,0.0004680409749241942,2.574528763953485e-06,0.0005861144616149507,0.8556622575244041,0.8565719017331987
1624633818.115082,5.124421045873583e-07,-4.7185832828021064e-07,5.78,4.94,7.43393502489198e-06,6.915288395248353e-05,1.3414634466171265,-0.0126953125,0.015625,2.4121013563528845e-06,0.0004680409749241942,2.574528763953485e-06,0.0005861144616149507,0.8556622575244041,0.8565719017331987
1624633818.115082,5.124421045873583e-07,-4.7185832828021064e-07,5.78,4.94,7.43393502489198e-06,6.915288395248353e-05,1.3414634466171265,-0.0126953125,0.015625,2.4121013563528845e-06,0.0004680409749241942,2.574528763953485e-06,0.0005861144616149507,0.8556622575244041,0.8565719017331987
1624633818.115082,5.124421045873583e-07,-4.7185832828021064e-07,5.78,4.94,7.43393502489198e-06,6.915288395248353e-05,1.3414634466171265,-0.0126953125,0.015625,2.4121013563528845e-06,0.0004680409749241942,2.574528763953485e-06,0.0005861144616149507,0.8556622575244041,0.8565719017331987
1624633818.115082,5.124421045873583e-07,-4.7185832828021064e-07,5.78,4.94,7.43393502489198e-06,6.915288395248353e-05,1.3414634466171265,-0.0126953125,0.015625,2.4121013563528845e-06,0.0004680409749241942,2.574528763953485e-06,0.0005861144616149507,0.8556622575244041,0.8565719017331987
1624633818.175082,4.958060518753403e-07,-4.549904791752794e-07,5.77,4.94,7.43393502489198e-06,6.915288395248353e-05,1.402438998222351,-0.015625,0.00732421875,2.4110037960982055e-06,0.00043856536306160365,2.5735359247910096e-06,0.0004920228336150698,0.8556579691455574,0.8565469734491977
1624633818.175082,4.958060518753403e-07,-4.549904791752794e-07,5.77,4.94,7.43393502489198e-06,6.915288395248353e-05,1.402438998222351,-0.015625,0.00732421875,2.4110037960982055e-06,0.00043856536306160365,2.5735359247910096e-06,0.0004920228336150698,0.8556579691455574,0.8565469734491977
1624633818.175082,4.958060518753403e-07,-4.549904791752794e-07,5.77,4.94,7.43393502489198e-06,6.915288395248353e-05,1.402438998222351,-0.015625,0.00732421875,2.4110037960982055e-06,0.00043856536306160365,2.5735359247910096e-06,0.0004920228336150698,0.8556579691455574,0.8565469734491977
1624633818.175082,4.958060518753403e-07,-4.549904791752794e-07,5.77,4.94,7.43393502489198e-06,6.915288395248353e-05,1.402438998222351,-0.015625,0.00732421875,2.4110037960982055e-06,0.00043856536306160365,2.5735359247910096e-06,0.0004920228336150698,0.8556579691455574,0.8565469734491977
1624633818.175082,4.958060518753403e-07,-4.549904791752794e-07,5.77,4.94,7.43393502489198e-06,6.915288395248353e-05,1.402438998222351,-0.015625,0.00732421875,2.4110037960982055e-06,0.00043856536306160365,2.5735359247910096e-06,0.0004920228336150698,0.8556579691455574,0.8565469734491977
1624633818.2130818,4.7422936977133104e-07,-4.4096576695021755e-07,5.77,4.94,7.43393502489198e-06,6.915288395248353e-05,1.402438998222351,-0.015625,0.00732421875,2.3193839043214607e-06,0.0008082298221899027,2.5512240766638438e-06,0.0006083637729867081,0.8556960774856947,0.8565465858710329
1624633818.2130818,4.7422936977133104e-07,-4.4096576695021755e-07,5.77,4.94,7.43393502489198e-06,6.915288395248353e-05,1.402438998222351,-0.015625,0.00732421875,2.3193839043214607e-06,0.0008082298221899027,2.5512240766638438e-06,0.0006083637729867081,0.8556960774856947,0.8565465858710329
1624633818.2130818,4.7422936977133104e-07,-4.4096576695021755e-07,5.77,4.94,7.43393502489198e-06,6.915288395248353e-05,1.402438998222351,-0.015625,0.00732421875,2.3193839043214607e-06,0.0008082298221899027,2.5512240766638438e-06,0.0006083637729867081,0.8556960774856947,0.8565465858710329
1624633818.2130818,4.7422936977133104e-07,-4.4096576695021755e-07,5.77,4.94,7.43393502489198e-06,6.915288395248353e-05,1.402438998222351,-0.015625,0.00732421875,2.3193839043214607e-06,0.0008082298221899027,2.5512240766638438e-06,0.0006083637729867081,0.8556960774856947,0.8565465858710329
1624633818.2130818,4.7422936977133104e-07,-4.4096576695021755e-07,5.78,4.95,7.43393502489198e-06,6.915288395248353e-05,1.402438998222351,-0.015625,0.00732421875,0.008742001850666037,0.0007886167673925055,2.5512240766638438e-06,0.0006083637729867081,0.8556688248113115,0.8565465858710329
1624633818.235082,0.0006666951089607675,-4.2838104910553143e-07,5.78,4.95,7.43393502489198e-06,6.915288395248353e-05,1.402438998222351,-0.015625,0.00732421875,0.008742001850666037,0.0007886167673925055,0.0012716959849159801,0.0006414665619189338,0.8556688248113115,0.8565134119893584
1624633818.235082,0.0006666951089607675,-4.2838104910553143e-07,5.78,4.95,7.43393502489198e-06,6.915288395248353e-05,1.3414634466171265,-0.00732421875,0.0107421875,0.008742001850666037,0.0007886167673925055,0.0012716959849159801,0.0006414665619189338,0.8556688248113115,0.8565134119893584
1624633818.235082,0.0006666951089607675,-4.2838104910553143e-07,5.78,4.95,7.43393502489198e-06,6.915288395248353e-05,1.3414634466171265,-0.00732421875,0.0107421875,0.008742001850666037,0.0007886167673925055,0.0012716959849159801,0.0006414665619189338,0.8556688248113115,0.8565134119893584
1624633818.235082,0.0006666951089607675,-4.2838104910553143e-07,5.78,4.95,7.43393502489198e-06,6.915288395248353e-05,1.3414634466171265,-0.00732421875,0.0107421875,0.008742001850666037,0.0007886167673925055,0.0012716959849159801,0.0006414665619189338,0.8556688248113115,0.8565134119893584
1624633818.235082,0.0006666951089607675,-4.2838104910553143e-07,5.78,4.95,0.012916786596179008,-0.09921423345804214,1.3414634466171265,-0.00732421875,0.0107421875,0.008742001850666037,0.0007886167673925055,0.0012716959849159801,0.0006414665619189338,0.8556688248113115,0.8565134119893584
1624633818.317082,0.0038471485626699656,-4.1261936882118826e-07,5.78,4.95,0.012916786596179008,-0.09921423345804214,1.3414634466171265,-0.00732421875,0.0107421875,0.039773555207394555,0.0009555744303876778,0.007392750238492972,0.0007643328985936667,0.8556957773327102,0.8565393137399303
1624633818.317082,0.0038471485626699656,-4.1261936882118826e-07,5.78,4.95,0.012916786596179008,-0.09921423345804214,1.3414634466171265,-0.00732421875,0.0107421875,0.039773555207394555,0.0009555744303876778,0.007392750238492972,0.0007643328985936667,0.8556957773327102,0.8565393137399303
1624633818.317082,0.0038471485626699656,-4.1261936882118826e-07,5.78,4.95,0.012916786596179008,-0.09921423345804214,1.3414634466171265,-0.00732421875,0.0107421875,0.039773555207394555,0.0009555744303876778,0.007392750238492972,0.0007643328985936667,0.8556957773327102,0.8565393137399303
1624633818.317082,0.0038471485626699656,-4.1261936882118826e-07,5.78,4.95,0.012916786596179008,-0.09921423345804214,1.3414634466171265,-0.00732421875,0.0107421875,0.039773555207394555,0.0009555744303876778,0.007392750238492972,0.0007643328985936667,0.8556957773327102,0.8565393137399303
1624633818.317082,0.0038471485626699656,-4.1261936882118826e-07,5.78,4.95,0.012916786596179008,-0.09921423345804214,1.3414634466171265,-0.00732421875,0.0107421875,0.039773555207394555,0.0009555744303876778,0.007392750238492972,0.0007643328985936667,0.8556957773327102,0.8565393137399303
1624633818.3550818,0.007469234940481692,-3.137234832401939e-07,5.78,4.95,0.0694826990365982,-0.08166971057653427,-5.487804889678955,-0.00634765625,-0.130859375,0.052031473939585904,0.0008487538962836833,0.007392750238492972,0.0007643328985936667,0.854190655941193,0.8565393137399303
1624633818.3550818,0.007469234940481692,-3.137234832401939e-07,5.78,4.95,0.0694826990365982,-0.08166971057653427,-5.487804889678955,-0.00634765625,-0.130859375,0.052031473939585904,0.0008487538962836833,0.014444357730057603,0.00071503265873085,0.854190655941193,0.8564313213254819
1624633818.3550818,0.007469234940481692,-3.137234832401939e-07,5.78,4.95,0.0694826990365982,-0.08166971057653427,-5.487804889678955,-0.00634765625,-0.130859375,0.052031473939585904,0.0008487538962836833,0.014444357730057603,0.00071503265873085,0.854190655941193,0.8564313213254819
1624633818.3550818,0.007469234940481692,-3.137234832401939e-07,5.78,4.95,0.0694826990365982,-0.08166971057653427,-5.487804889678955,-0.00634765625,-0.130859375,0.052031473939585904,0.0008487538962836833,0.014444357730057603,0.00071503265873085,0.854190655941193,0.8564313213254819
1624633818.3550818,0.007469234940481692,-3.137234832401939e-07,5.78,4.95,0.0694826990365982,-0.08166971057653427,-5.487804889678955,-0.00634765625,-0.130859375,0.052031473939585904,0.0008487538962836833,0.014444357730057603,0.00071503265873085,0.854190655941193,0.8564313213254819
1624633818.421082,0.012486115192936752,-7.577301581124244e-07,5.78,4.95,0.0694826990365982,-0.08166971057653427,-5.487804889678955,-0.00634765625,-0.130859375,0.07437906327744566,-0.008185500873212776,0.024511575445824777,-0.003522011628464068,0.8481914390247701,0.8557799354375265
1624633818.421082,0.012486115192936752,-7.577301581124244e-07,5.78,4.95,0.15640723705291748,0.032659560441970825,-5.487804889678955,-0.00634765625,-0.130859375,0.07437906327744566,-0.008185500873212776,0.024511575445824777,-0.003522011628464068,0.8481914390247701,0.8557799354375265
1624633818.421082,0.012486115192936752,-7.577301581124244e-07,5.78,4.95,0.15640723705291748,0.032659560441970825,-5.487804889678955,-0.00634765625,-0.130859375,0.07437906327744566,-0.008185500873212776,0.024511575445824777,-0.003522011628464068,0.8481914390247701,0.8557799354375265
1624633818.421082,0.012486115192936752,-7.577301581124244e-07,5.78,4.95,0.15640723705291748,0.032659560441970825,-5.487804889678955,-0.00634765625,-0.130859375,0.07437906327744566,-0.008185500873212776,0.024511575445824777,-0.003522011628464068,0.8481914390247701,0.8557799354375265
1624633818.421082,0.012486115192936752,-7.577301581124244e-07,5.78,4.95,0.15640723705291748,0.032659560441970825,-5.487804889678955,-0.00634765625,-0.130859375,0.07437906327744566,-0.008185500873212776,0.024511575445824777,-0.003522011628464068,0.8481914390247701,0.8557799354375265
1624633818.475082,0.018308302775597283,-3.394445628970489e-06,5.78,4.95,0.15640723705291748,0.032659560441970825,-5.487804889678955,-0.00634765625,-0.130859375,0.09374844114580212,-0.007845254203691804,0.03630450214214988,-0.005489095078832929,0.8456768417994972,0.8548850957038412
1624633818.475082,0.018308302775597283,-3.394445628970489e-06,5.78,4.95,0.15640723705291748,0.032659560441970825,-5.487804889678955,-0.00634765625,-0.130859375,0.09374844114580212,-0.007845254203691804,0.03630450214214988,-0.005489095078832929,0.8456768417994972,0.8548850957038412
1624633818.475082,0.018308302775597283,-3.394445628970489e-06,5.78,4.95,0.26390135288238525,0.049054231494665146,-0.7317073345184326,-0.11083984375,-0.193359375,0.09374844114580212,-0.007845254203691804,0.03630450214214988,-0.005489095078832929,0.8456768417994972,0.8548850957038412
1624633818.475082,0.018308302775597283,-3.394445628970489e-06,5.78,4.95,0.26390135288238525,0.049054231494665146,-0.7317073345184326,-0.11083984375,-0.193359375,0.09374844114580212,-0.007845254203691804,0.03630450214214988,-0.005489095078832929,0.8456768417994972,0.8548850957038412
1624633818.475082,0.018308302775597283,-3.394445628970489e-06,5.78,4.95,0.26390135288238525,0.049054231494665146,-0.7317073345184326,-0.11083984375,-0.193359375,0.09374844114580212,-0.007845254203691804,0.03630450214214988,-0.005489095078832929,0.8456768417994972,0.8548850957038412
1624633818.475082,0.0225056415786147,-5.296334706798192e-06,5.78,4.95,0.26390135288238525,0.049054231494665146,-0.7317073345184326,-0.11083984375,-0.193359375,0.09374844114580212,-0.007845254203691804,0.04432019327999125,-0.006366668008499252,0.8456768417994972,0.8543256635880716
1624633818.475082,0.0225056415786147,-5.296334706798192e-06,5.78,4.95,0.26390135288238525,0.049054231494665146,-0.7317073345184326,-0.11083984375,-0.193359375,0.09374844114580212,-0.007845254203691804,0.04432019327999125,-0.006366668008499252,0.8456768417994972,0.8543256635880716
1624633818.475082,0.0225056415786147,-5.296334706798192e-06,5.78,4.95,0.26390135288238525,0.049054231494665146,-0.7317073345184326,-0.11083984375,-0.193359375,0.09374844114580212,-0.007845254203691804,0.04432019327999125,-0.006366668008499252,0.8456768417994972,0.8543256635880716
1624633818.475082,0.0225056415786147,-5.296334706798192e-06,5.78,4.95,0.37817010283470154,0.015167025849223137,-0.7317073345184326,-0.11083984375,-0.193359375,0.09374844114580212,-0.007845254203691804,0.04432019327999125,-0.006366668008499252,0.8456768417994972,0.8543256635880716
1624633818.475082,0.0225056415786147,-5.296334706798192e-06,5.79,4.96,0.37817010283470154,0.015167025849223137,-0.7317073345184326,-0.11083984375,-0.193359375,0.09368103937938438,0.002806706686463907,0.04432019327999125,-0.006366668008499252,0.8463900609582898,0.8543256635880716
1624633818.534812,0.02622355542025619,-8.842271411252948e-06,5.79,4.96,0.37817010283470154,0.015167025849223137,-2.865853786468506,-0.1162109375,-0.265625,0.09368103937938438,0.002806706686463907,0.05274402414235003,-0.0029698206834193864,0.8463900609582898,0.8537106005094549
1624633818.534812,0.02622355542025619,-8.842271411252948e-06,5.79,4.96,0.37817010283470154,0.015167025849223137,-2.865853786468506,-0.1162109375,-0.265625,0.09368103937938438,0.002806706686463907,0.05274402414235003,-0.0029698206834193864,0.8463900609582898,0.8537106005094549
1624633818.534812,0.02622355542025619,-8.842271411252948e-06,5.79,4.96,0.37817010283470154,0.015167025849223137,-2.865853786468506,-0.1162109375,-0.265625,0.09368103937938438,0.002806706686463907,0.05274402414235003,-0.0029698206834193864,0.8463900609582898,0.8537106005094549
1624633818.534812,0.02622355542025619,-8.842271411252948e-06,5.79,4.96,0.37817010283470154,0.015167025849223137,-2.865853786468506,-0.1162109375,-0.265625,0.09368103937938438,0.002806706686463907,0.05274402414235003,-0.0029698206834193864,0.8463900609582898,0.8537106005094549
1624633818.534812,0.02622355542025619,-8.842271411252948e-06,5.79,4.96,0.47224634885787964,0.01522405818104744,-2.865853786468506,-0.1162109375,-0.265625,0.09837433895863906,0.026058090375557213,0.05274402414235003,-0.0029698206834193864,0.8483806084983155,0.8537106005094549
1624633818.608812,0.02983119451189997,-1.2084665360417788e-05,5.79,4.96,0.47224634885787964,0.01522405818104744,-2.865853786468506,-0.1162109375,-0.265625,0.09837433895863906,0.026058090375557213,0.06155892205287163,0.011003411029545433,0.8483806084983155,0.8541132402571968
1624633818.608812,0.02983119451189997,-1.2084665360417788e-05,5.79,4.96,0.47224634885787964,0.01522405818104744,-2.865853786468506,-0.1162109375,-0.265625,0.09837433895863906,0.026058090375557213,0.06155892205287163,0.011003411029545433,0.8483806084983155,0.8541132402571968
1624633818.608812,0.02983119451189997,-1.2084665360417788e-05,5.79,4.96,0.47224634885787964,0.01522405818104744,-2.865853786468506,-0.1162109375,-0.265625,0.09837433895863906,0.026058090375557213,0.06155892205287163,0.011003411029545433,0.8483806084983155,0.8541132402571968
1624633818.608812,0.02983119451189997,-1.2084665360417788e-05,5.79,4.96,0.47224634885787964,0.01522405818104744,-2.865853786468506,-0.1162109375,-0.265625,0.09837433895863906,0.026058090375557213,0.06155892205287163,0.011003411029545433,0.8483806084983155,0.8541132402571968
1624633818.608812,0.02983119451189997,-1.2084665360417788e-05,5.76,4.93,0.47224634885787964,0.01522405818104744,-2.865853786468506,-0.1162109375,-0.265625,0.11176355870302047,0.02483928808905448,0.06155892205287163,0.011003411029545433,0.8490469725787197,0.8541132402571968
1624633818.654812,0.03385838318050453,-1.3996594198673334e-05,5.76,4.93,0.5303097367286682,0.04910919815301895,-2.4390244483947754,-0.09326171875,-0.04736328125,0.11176355870302047,0.02483928808905448,0.07060406898407819,0.016018125174955825,0.8490469725787197,0.8545742946479671
1624633818.654812,0.03385838318050453,-1.3996594198673334e-05,5.76,4.93,0.5303097367286682,0.04910919815301895,-2.4390244483947754,-0.09326171875,-0.04736328125,0.11176355870302047,0.02483928808905448,0.07060406898407819,0.016018125174955825,0.8490469725787197,0.8545742946479671
1624633818.654812,0.03385838318050453,-1.3996594198673334e-05,5.76,4.93,0.5303097367286682,0.04910919815301895,-2.4390244483947754,-0.09326171875,-0.04736328125,0.11176355870302047,0.02483928808905448,0.07060406898407819,0.016018125174955825,0.8490469725787197,0.8545742946479671
1624633818.654812,0.03385838318050453,-1.3996594198673334e-05,5.76,4.93,0.5303097367286682,0.04910919815301895,-2.4390244483947754,-0.09326171875,-0.04736328125,0.11176355870302047,0.02483928808905448,0.07060406898407819,0.016018125174955825,0.8490469725787197,0.8545742946479671
1624633818.654812,0.03385838318050453,-1.3996594198673334e-05,5.76,4.93,0.5303097367286682,0.04910919815301895,-2.4390244483947754,-0.09326171875,-0.04736328125,0.1280767140413925,0.024638397657688372,0.07060406898407819,0.016018125174955825,0.8511609608530902,0.8545742946479671
1624633818.714812,0.03853762984687169,-1.2507136131288886e-05,5.76,4.93,0.5303097367286682,0.04910919815301895,-2.4390244483947754,-0.09326171875,-0.04736328125,0.1280767140413925,0.024638397657688372,0.0815576332841787,0.0196994207095215,0.8511609608530902,0.8554646612715459
1624633818.714812,0.03853762984687169,-1.2507136131288886e-05,5.76,4.93,0.5544770359992981,0.0010946004185825586,-2.4390244483947754,-0.09326171875,-0.04736328125,0.1280767140413925,0.024638397657688372,0.0815576332841787,0.0196994207095215,0.8511609608530902,0.8554646612715459
1624633818.714812,0.03853762984687169,-1.2507136131288886e-05,5.76,4.93,0.5544770359992981,0.0010946004185825586,-2.4390244483947754,-0.09326171875,-0.04736328125,0.1280767140413925,0.024638397657688372,0.0815576332841787,0.0196994207095215,0.8511609608530902,0.8554646612715459
1624633818.714812,0.03853762984687169,-1.2507136131288886e-05,5.76,4.93,0.5544770359992981,0.0010946004185825586,-2.4390244483947754,-0.09326171875,-0.04736328125,0.1280767140413925,0.024638397657688372,0.0815576332841787,0.0196994207095215,0.8511609608530902,0.8554646612715459
1624633818.774812,0.04386172177725557,-6.552528274513005e-06,5.78,4.88,0.5544770359992981,0.0010946004185825586,-2.4390244483947754,-0.09326171875,-0.04736328125,0.14594395261326967,0.0231713978595839,0.09403409825471025,0.020839034373281714,0.8527896779389283,0.8564256567881589
1624633818.774812,0.04386172177725557,-6.552528274513005e-06,5.78,4.88,0.5544770359992981,0.0010946004185825586,-2.4390244483947754,-0.09326171875,-0.04736328125,0.14594395261326967,0.0231713978595839,0.09403409825471025,0.020839034373281714,0.8527896779389283,0.8564256567881589
1624633818.774812,0.04386172177725557,-6.552528274513005e-06,5.78,4.88,0.5544770359992981,0.0010946004185825586,-0.4268292784690857,-0.0263671875,-0.09130859375,0.14594395261326967,0.0231713978595839,0.09403409825471025,0.020839034373281714,0.8527896779389283,0.8564256567881589
1624633818.774812,0.04386172177725557,-6.552528274513005e-06,5.78,4.88,0.534716010093689,0.049116674810647964,-0.4268292784690857,-0.0263671875,-0.09130859375,0.14594395261326967,0.0231713978595839,0.09403409825471025,0.020839034373281714,0.8527896779389283,0.8564256567881589
1624633818.774812,0.04386172177725557,-6.552528274513005e-06,5.78,4.88,0.534716010093689,0.049116674810647964,-0.4268292784690857,-0.0263671875,-0.09130859375,0.14594395261326967,0.0231713978595839,0.09403409825471025,0.020839034373281714,0.8527896779389283,0.8564256567881589
1624633818.816812,0.04736166757581422,-1.8929669631642901e-06,5.78,4.88,0.534716010093689,0.049116674810647964,-0.4268292784690857,-0.0263671875,-0.09130859375,0.13981429725853584,0.013688968515722003,0.10255710215110658,0.017734022505618806,0.8532106441819093,0.8569135471938343
1624633818.816812,0.04736166757581422,-1.8929669631642901e-06,5.78,4.88,0.534716010093689,0.049116674810647964,-0.4268292784690857,-0.0263671875,-0.09130859375,0.13981429725853584,0.013688968515722003,0.10255710215110658,0.017734022505618806,0.8532106441819093,0.8569135471938343
1624633818.816812,0.04736166757581422,-1.8929669631642901e-06,5.78,4.88,0.534716010093689,0.049116674810647964,-0.4268292784690857,-0.0263671875,-0.09130859375,0.13981429725853584,0.013688968515722003,0.10255710215110658,0.017734022505618806,0.8532106441819093,0.8569135471938343
1624633818.816812,0.04736166757581422,-1.8929669631642901e-06,5.78,4.88,0.534716010093689,0.049116674810647964,-0.4268292784690857,-0.0263671875,-0.09130859375,0.13981429725853584,0.013688968515722003,0.10255710215110658,0.017734022505618806,0.8532106441819093,0.8569135471938343
1624633818.816812,0.04736166757581422,-1.8929669631642901e-06,5.78,4.88,0.507604718208313,0.01628880202770233,-0.4268292784690857,-0.0263671875,-0.09130859375,0.13981429725853584,0.013688968515722003,0.10255710215110658,0.017734022505618806,0.8532106441819093,0.8569135471938343
1624633818.834812,0.051936199452429964,4.490608834696912e-06,5.78,4.83,0.507604718208313,0.01628880202770233,-0.4268292784690857,-0.0263671875,-0.09130859375,0.16353100698713752,0.013462058904715931,0.11213238130131029,0.01626187329074139,0.8539203148782453,0.8568730776485524
1624633818.834812,0.051936199452429964,4.490608834696912e-06,5.78,4.83,0.507604718208313,0.01628880202770233,-3.170731782913208,-0.04638671875,0.32275390625,0.16353100698713752,0.013462058904715931,0.11213238130131029,0.01626187329074139,0.8539203148782453,0.8568730776485524
1624633818.834812,0.051936199452429964,4.490608834696912e-06,5.78,4.83,0.507604718208313,0.01628880202770233,-3.170731782913208,-0.04638671875,0.32275390625,0.16353100698713752,0.013462058904715931,0.11213238130131029,0.01626187329074139,0.8539203148782453,0.8568730776485524
1624633818.834812,0.051936199452429964,4.490608834696912e-06,5.78,4.83,0.507604718208313,0.01628880202770233,-3.170731782913208,-0.04638671875,0.32275390625,0.16353100698713752,0.013462058904715931,0.11213238130131029,0.01626187329074139,0.8539203148782453,0.8568730776485524
1624633818.834812,0.051936199452429964,4.490608834696912e-06,5.78,4.83,0.507604718208313,0.01628880202770233,-3.170731782913208,-0.04638671875,0.32275390625,0.16353100698713752,0.013462058904715931,0.11213238130131029,0.01626187329074139,0.8539203148782453,0.8568730776485524
1624633818.9208121,0.056693057373063516,1.2088596361074467e-05,5.78,4.83,0.5013256072998047,0.032609425485134125,-3.170731782913208,-0.04638671875,0.32275390625,0.17383462959244986,0.011892283482412032,0.11213238130131029,0.01626187329074139,0.8547661098053752,0.8568730776485524
1624633818.9208121,0.056693057373063516,1.2088596361074467e-05,5.78,4.83,0.5013256072998047,0.032609425485134125,-3.170731782913208,-0.04638671875,0.32275390625,0.17383462959244986,0.011892283482412032,0.11213238130131029,0.01626187329074139,0.8547661098053752,0.8568730776485524
1624633818.9208121,0.056693057373063516,1.2088596361074467e-05,5.78,4.83,0.5013256072998047,0.032609425485134125,-3.170731782913208,-0.04638671875,0.32275390625,0.17383462959244986,0.011892283482412032,0.11213238130131029,0.01626187329074139,0.8547661098053752,0.8568730776485524
1624633818.9208121,0.056693057373063516,1.2088596361074467e-05,5.78,4.83,0.5013256072998047,0.032609425485134125,-3.170731782913208,-0.04638671875,0.32275390625,0.17383462959244986,0.011892283482412032,0.11213238130131029,0.01626187329074139,0.8547661098053752,0.8568730776485524
1624633818.9208121,0.056693057373063516,1.2088596361074467e-05,5.79,4.8,0.5013256072998047,0.032609425485134125,-3.170731782913208,-0.04638671875,0.32275390625,0.1911389250503928,0.011490713242300821,0.12568306592461292,0.014185352128703092,0.8552170797008033,0.8579205258363843
1624633818.954812,0.06184534417500992,1.8538946192363075e-05,5.79,4.8,0.5013256072998047,0.032609425485134125,-3.170731782913208,-0.04638671875,0.32275390625,0.1911389250503928,0.011490713242300821,0.12568306592461292,0.014185352128703092,0.8552170797008033,0.8579205258363843
1624633818.954812,0.06184534417500992,1.8538946192363075e-05,5.79,4.8,0.48449763655662537,-0.016024256125092506,-3.170731782913208,-0.04638671875,0.32275390625,0.1911389250503928,0.011490713242300821,0.12568306592461292,0.014185352128703092,0.8552170797008033,0.8579205258363843
1624633818.954812,0.06184534417500992,1.8538946192363075e-05,5.79,4.8,0.48449763655662537,-0.016024256125092506,-3.170731782913208,-0.04638671875,0.32275390625,0.1911389250503928,0.011490713242300821,0.12568306592461292,0.014185352128703092,0.8552170797008033,0.8579205258363843
1624633818.954812,0.06184534417500992,1.8538946192363075e-05,5.79,4.8,0.48449763655662537,-0.016024256125092506,-0.5487805008888245,0.09033203125,0.2646484375,0.1911389250503928,0.011490713242300821,0.12568306592461292,0.014185352128703092,0.8552170797008033,0.8579205258363843
1624633818.954812,0.06184534417500992,1.8538946192363075e-05,5.79,4.8,0.48449763655662537,-0.016024256125092506,-0.5487805008888245,0.09033203125,0.2646484375,0.1911389250503928,0.011490713242300821,0.13744347688347613,0.013137559896574067,0.8552170797008033,0.858012310229338
1624633819.014812,0.06687505686148434,2.4392637053301055e-05,5.79,4.8,0.48449763655662537,-0.016024256125092506,-0.5487805008888245,0.09033203125,0.2646484375,0.20146882251026643,0.010782197304967702,0.13744347688347613,0.013137559896574067,0.8555395397654064,0.858012310229338
1624633819.014812,0.06687505686148434,2.4392637053301055e-05,5.79,4.8,0.48449763655662537,-0.016024256125092506,-0.5487805008888245,0.09033203125,0.2646484375,0.20146882251026643,0.010782197304967702,0.13744347688347613,0.013137559896574067,0.8555395397654064,0.858012310229338
1624633819.014812,0.06687505686148434,2.4392637053301055e-05,5.79,4.8,0.49568721652030945,0.016319280490279198,-0.5487805008888245,0.09033203125,0.2646484375,0.20146882251026643,0.010782197304967702,0.13744347688347613,0.013137559896574067,0.8555395397654064,0.858012310229338
1624633819.014812,0.06687505686148434,2.4392637053301055e-05,5.79,4.8,0.49568721652030945,0.016319280490279198,-0.5487805008888245,0.09033203125,0.2646484375,0.20146882251026643,0.010782197304967702,0.15075357154601474,0.012237172354935424,0.8555395397654064,0.8583709189002826
1624633819.014812,0.06687505686148434,2.4392637053301055e-05,5.79,4.8,0.49568721652030945,0.016319280490279198,-0.5487805008888245,0.09033203125,0.2646484375,0.20146882251026643,0.010782197304967702,0.15075357154601474,0.012237172354935424,0.8555395397654064,0.8583709189002826
1624633819.074812,0.07158492928737704,2.8408608776233386e-05,5.82,4.77,0.49568721652030945,0.016319280490279198,3.0487804412841797,0.3251953125,0.427734375,0.21014284948678955,0.020854142377943582,0.15075357154601474,0.012237172354935424,0.8562805493840931,0.8583709189002826
1624633819.074812,0.07158492928737704,2.8408608776233386e-05,5.82,4.77,0.49568721652030945,0.016319280490279198,3.0487804412841797,0.3251953125,0.427734375,0.21014284948678955,0.020854142377943582,0.15075357154601474,0.012237172354935424,0.8562805493840931,0.8583709189002826
1624633819.074812,0.07158492928737704,2.8408608776233386e-05,5.82,4.77,0.49568721652030945,0.016319280490279198,3.0487804412841797,0.3251953125,0.427734375,0.21014284948678955,0.020854142377943582,0.15075357154601474,0.012237172354935424,0.8562805493840931,0.8583709189002826
1624633819.074812,0.07158492928737704,2.8408608776233386e-05,5.82,4.77,0.4943042993545532,-0.03270523622632027,3.0487804412841797,0.3251953125,0.427734375,0.21014284948678955,0.020854142377943582,0.1637619202889659,0.01555762438070554,0.8562805493840931,0.858941327301993
1624633819.074812,0.07158492928737704,2.8408608776233386e-05,5.82,4.77,0.4943042993545532,-0.03270523622632027,3.0487804412841797,0.3251953125,0.427734375,0.21014284948678955,0.020854142377943582,0.1637619202889659,0.01555762438070554,0.8562805493840931,0.858941327301993
1624633819.108812,0.07445839597152872,3.159038962419221e-05,5.82,4.77,0.4943042993545532,-0.03270523622632027,3.0487804412841797,0.3251953125,0.427734375,0.20299795933303733,0.023249977588848742,0.1637619202889659,0.01555762438070554,0.8571391852953303,0.858941327301993
1624633819.108812,0.07445839597152872,3.159038962419221e-05,5.82,4.77,0.4943042993545532,-0.03270523622632027,3.0487804412841797,0.3251953125,0.427734375,0.20299795933303733,0.023249977588848742,0.1637619202889659,0.01555762438070554,0.8571391852953303,0.858941327301993
1624633819.108812,0.07445839597152872,3.159038962419221e-05,5.82,4.77,0.4943042993545532,-0.03270523622632027,3.0487804412841797,0.3251953125,0.427734375,0.20299795933303733,0.023249977588848742,0.1637619202889659,0.01555762438070554,0.8571391852953303,0.858941327301993
1624633819.108812,0.07445839597152872,3.159038962419221e-05,5.82,4.77,0.4943042993545532,-0.03270523622632027,3.0487804412841797,0.3251953125,0.427734375,0.20299795933303733,0.023249977588848742,0.17167993860988273,0.01891893944385733,0.8571391852953303,0.8594954594197903
1624633819.108812,0.07445839597152872,3.159038962419221e-05,5.82,4.77,0.5112626552581787,0.014156671240925789,3.0487804412841797,0.3251953125,0.427734375,0.20299795933303733,0.023249977588848742,0.17167993860988273,0.01891893944385733,0.8571391852953303,0.8594954594197903
1624633819.134812,0.07781515577165299,3.2956974435831837e-05,5.84,4.72,0.5112626552581787,0.014156671240925789,2.317073106765747,-0.23388671875,0.169921875,0.21772287992865544,0.022599010818806615,0.17167993860988273,0.01891893944385733,0.856549660751419,0.8594954594197903
1624633819.134812,0.07781515577165299,3.2956974435831837e-05,5.84,4.72,0.5112626552581787,0.014156671240925789,2.317073106765747,-0.23388671875,0.169921875,0.21772287992865544,0.022599010818806615,0.17167993860988273,0.01891893944385733,0.856549660751419,0.8594954594197903
1624633819.134812,0.07781515577165299,3.2956974435831837e-05,5.84,4.72,0.5112626552581787,0.014156671240925789,2.317073106765747,-0.23388671875,0.169921875,0.21772287992865544,0.022599010818806615,0.17167993860988273,0.01891893944385733,0.856549660751419,0.8594954594197903
1624633819.134812,0.07781515577165299,3.2956974435831837e-05,5.84,4.72,0.5112626552581787,0.014156671240925789,2.317073106765747,-0.23388671875,0.169921875,0.21772287992865544,0.022599010818806615,0.1800125855067143,0.02009669711117094,0.856549660751419,0.8595885935746275
1624633819.134812,0.07781515577165299,3.2956974435831837e-05,5.84,4.72,0.5039884448051453,-0.0173508208245039,2.317073106765747,-0.23388671875,0.169921875,0.21772287992865544,0.022599010818806615,0.1800125855067143,0.02009669711117094,0.856549660751419,0.8595885935746275
1624633819.212812,0.08062223853616322,3.320328198980818e-05,5.84,4.72,0.5039884448051453,-0.0173508208245039,2.317073106765747,-0.23388671875,0.169921875,0.22026074590999195,0.01843692070222206,0.1800125855067143,0.02009669711117094,0.8573881593639996,0.8595885935746275
1624633819.212812,0.08062223853616322,3.320328198980818e-05,5.84,4.72,0.5039884448051453,-0.0173508208245039,2.317073106765747,-0.23388671875,0.169921875,0.22026074590999195,0.01843692070222206,0.1800125855067143,0.02009669711117094,0.8573881593639996,0.8595885935746275
1624633819.212812,0.08062223853616322,3.320328198980818e-05,5.84,4.72,0.5039884448051453,-0.0173508208245039,2.317073106765747,-0.23388671875,0.169921875,0.22026074590999195,0.01843692070222206,0.1800125855067143,0.02009669711117094,0.8573881593639996,0.8595885935746275
1624633819.212812,0.08062223853616322,3.320328198980818e-05,5.84,4.72,0.5039884448051453,-0.0173508208245039,2.317073106765747,-0.23388671875,0.169921875,0.22026074590999195,0.01843692070222206,0.1914342785476232,0.019263896819005182,0.8573881593639996,0.8606498034309784
1624633819.212812,0.08062223853616322,3.320328198980818e-05,5.84,4.72,0.5039884448051453,-0.0173508208245039,2.317073106765747,-0.23388671875,0.169921875,0.22026074590999195,0.01843692070222206,0.1914342785476232,0.019263896819005182,0.8573881593639996,0.8606498034309784
1624633819.254812,0.08352884084020464,3.233413658486864e-05,5.86,4.72,0.5095800757408142,0.0033254968002438545,2.317073106765747,-0.23388671875,0.169921875,0.23045863409983763,0.01761617508888267,0.1914342785476232,0.019263896819005182,0.8570945199932323,0.8606498034309784
1624633819.254812,0.08352884084020464,3.233413658486864e-05,5.86,4.72,0.5095800757408142,0.0033254968002438545,-4.939024448394775,-0.26513671875,0.2314453125,0.23045863409983763,0.01761617508888267,0.1914342785476232,0.019263896819005182,0.8570945199932323,0.8606498034309784
1624633819.254812,0.08352884084020464,3.233413658486864e-05,5.86,4.72,0.5095800757408142,0.0033254968002438545,-4.939024448394775,-0.26513671875,0.2314453125,0.23045863409983763,0.01761617508888267,0.20035970400104025,0.01855200176281193,0.8570945199932323,0.8606804273936951
1624633819.254812,0.08352884084020464,3.233413658486864e-05,5.86,4.72,0.5095800757408142,0.0033254968002438545,-4.939024448394775,-0.26513671875,0.2314453125,0.23045863409983763,0.01761617508888267,0.20035970400104025,0.01855200176281193,0.8570945199932323,0.8606804273936951
1624633819.254812,0.08352884084020464,3.233413658486864e-05,5.86,4.72,0.5095800757408142,0.0033254968002438545,-4.939024448394775,-0.26513671875,0.2314453125,0.23045863409983763,0.01761617508888267,0.20035970400104025,0.01855200176281193,0.8570945199932323,0.8606804273936951
1624633819.316812,0.08602012927344578,3.0110578072314966e-05,5.86,4.72,0.5095800757408142,0.0033254968002438545,-4.939024448394775,-0.26513671875,0.2314453125,0.23519726737682142,0.006283283745412677,0.20035970400104025,0.01855200176281193,0.8569733116751562,0.8606804273936951
1624633819.316812,0.08602012927344578,3.0110578072314966e-05,5.86,4.72,0.46648457646369934,-0.002213509287685156,-4.939024448394775,-0.26513671875,0.2314453125,0.23519726737682142,0.006283283745412677,0.20035970400104025,0.01855200176281193,0.8569733116751562,0.8606804273936951
1624633819.316812,0.08602012927344578,3.0110578072314966e-05,5.86,4.72,0.46648457646369934,-0.002213509287685156,-4.939024448394775,-0.26513671875,0.2314453125,0.23519726737682142,0.006283283745412677,0.21028936065655904,0.012980858095613326,0.8569733116751562,0.8606815849458911
1624633819.316812,0.08602012927344578,3.0110578072314966e-05,5.86,4.72,0.46648457646369934,-0.002213509287685156,-4.939024448394775,-0.26513671875,0.2314453125,0.23519726737682142,0.006283283745412677,0.21028936065655904,0.012980858095613326,0.8569733116751562,0.8606815849458911
1624633819.316812,0.08602012927344578,3.0110578072314966e-05,5.86,4.67,0.46648457646369934,-0.002213509287685156,-4.939024448394775,-0.26513671875,0.2314453125,0.23519726737682142,0.006283283745412677,0.21028936065655904,0.012980858095613326,0.8569733116751562,0.8606815849458911
1624633819.3748121,0.08808752448505282,2.7811075713336068e-05,5.86,4.67,0.46648457646369934,-0.002213509287685156,-4.939024448394775,-0.26513671875,0.2314453125,0.23954376387143592,0.0059258829695645904,0.21028936065655904,0.012980858095613326,0.8574624881072009,0.8606815849458911
1624633819.3748121,0.08808752448505282,2.7811075713336068e-05,5.86,4.67,0.46648457646369934,-0.002213509287685156,0.792682945728302,-0.0595703125,0.1103515625,0.23954376387143592,0.0059258829695645904,0.21028936065655904,0.012980858095613326,0.8574624881072009,0.8606815849458911
1624633819.3748121,0.08808752448505282,2.7811075713336068e-05,5.86,4.67,0.3903256356716156,-0.016398077830672264,0.792682945728302,-0.0595703125,0.1103515625,0.23954376387143592,0.0059258829695645904,0.21922475730837615,0.010262706215143387,0.8574624881072009,0.8605211920317685
1624633819.3748121,0.08808752448505282,2.7811075713336068e-05,5.86,4.67,0.3903256356716156,-0.016398077830672264,0.792682945728302,-0.0595703125,0.1103515625,0.23954376387143592,0.0059258829695645904,0.21922475730837615,0.010262706215143387,0.8574624881072009,0.8605211920317685
1624633819.3748121,0.08808752448505282,2.7811075713336068e-05,5.86,4.67,0.3903256356716156,-0.016398077830672264,0.792682945728302,-0.0595703125,0.1103515625,0.23954376387143592,0.0059258829695645904,0.21922475730837615,0.010262706215143387,0.8574624881072009,0.8605211920317685
1624633819.4208121,0.08850623228143596,2.5811783489094695e-05,5.86,4.67,0.3903256356716156,-0.016398077830672264,0.792682945728302,-0.0595703125,0.1103515625,0.22852475042446443,0.0020205660215005805,0.21922475730837615,0.010262706215143387,0.8574938323255011,0.8605211920317685
1624633819.4208121,0.08850623228143596,2.5811783489094695e-05,5.86,4.67,0.3903256356716156,-0.016398077830672264,0.792682945728302,-0.0595703125,0.1103515625,0.22852475042446443,0.0020205660215005805,0.21922475730837615,0.010262706215143387,0.8574938323255011,0.8605211920317685
1624633819.4208121,0.08850623228143596,2.5811783489094695e-05,5.86,4.67,0.3903256356716156,-0.016398077830672264,0.792682945728302,-0.0595703125,0.1103515625,0.22852475042446443,0.0020205660215005805,0.22407602845460214,0.006679410916002226,0.8574938323255011,0.860411435759671
1624633819.4208121,0.08850623228143596,2.5811783489094695e-05,5.86,4.67,0.29009175300598145,0.0009953421540558338,0.792682945728302,-0.0595703125,0.1103515625,0.22852475042446443,0.0020205660215005805,0.22407602845460214,0.006679410916002226,0.8574938323255011,0.860411435759671
1624633819.4208121,0.08850623228143596,2.5811783489094695e-05,5.85,4.6,0.29009175300598145,0.0009953421540558338,0.792682945728302,-0.0595703125,0.1103515625,0.22852475042446443,0.0020205660215005805,0.22407602845460214,0.006679410916002226,0.8574938323255011,0.860411435759671
1624633819.434812,0.08961596445345812,2.360767524101634e-05,5.85,4.6,0.29009175300598145,0.0009953421540558338,0.792682945728302,-0.0595703125,0.1103515625,0.23999890098815926,0.00196349179025853,0.22407602845460214,0.006679410916002226,0.8568286572677077,0.860411435759671
1624633819.434812,0.08961596445345812,2.360767524101634e-05,5.85,4.6,0.29009175300598145,0.0009953421540558338,0.792682945728302,-0.0595703125,0.1103515625,0.23999890098815926,0.00196349179025853,0.22407602845460214,0.006679410916002226,0.8568286572677077,0.860411435759671
1624633819.434812,0.08961596445345812,2.360767524101634e-05,5.85,4.6,0.29009175300598145,0.0009953421540558338,0.18292683362960815,-0.033203125,0.14208984375,0.23999890098815926,0.00196349179025853,0.22743152680834883,0.005095280408918226,0.8568286572677077,0.8597339152842873
1624633819.434812,0.08961596445345812,2.360767524101634e-05,5.85,4.6,0.29009175300598145,0.0009953421540558338,0.18292683362960815,-0.033203125,0.14208984375,0.23999890098815926,0.00196349179025853,0.22743152680834883,0.005095280408918226,0.8568286572677077,0.8597339152842873
1624633819.434812,0.08961596445345812,2.360767524101634e-05,5.85,4.6,0.18693241477012634,-0.017925087362527847,0.18292683362960815,-0.033203125,0.14208984375,0.23999890098815926,0.00196349179025853,0.22743152680834883,0.005095280408918226,0.8568286572677077,0.8597339152842873
1624633819.494812,0.08983623898623501,2.0968876102327414e-05,5.85,4.6,0.18693241477012634,-0.017925087362527847,0.18292683362960815,-0.033203125,0.14208984375,0.2355846642657487,0.0018256115669823972,0.22743152680834883,0.005095280408918226,0.856561029340622,0.8597339152842873
1624633819.494812,0.08983623898623501,2.0968876102327414e-05,5.85,4.6,0.18693241477012634,-0.017925087362527847,0.18292683362960815,-0.033203125,0.14208984375,0.2355846642657487,0.0018256115669823972,0.22743152680834883,0.005095280408918226,0.856561029340622,0.8597339152842873
1624633819.494812,0.08983623898623501,2.0968876102327414e-05,5.85,4.6,0.18693241477012634,-0.017925087362527847,0.18292683362960815,-0.033203125,0.14208984375,0.2355846642657487,0.0018256115669823972,0.22743152680834883,0.005095280408918226,0.856561029340622,0.8597339152842873
1624633819.494812,0.08983623898623501,2.0968876102327414e-05,5.85,4.6,0.18693241477012634,-0.017925087362527847,0.18292683362960815,-0.033203125,0.14208984375,0.2355846642657487,0.0018256115669823972,0.22743152680834883,0.005095280408918226,0.856561029340622,0.8597339152842873
1624633819.494812,0.08983623898623501,2.0968876102327414e-05,5.86,4.56,0.0879199430346489,0.017519604414701462,0.18292683362960815,-0.033203125,0.14208984375,0.22571147452191093,0.005164552803642058,0.233227870183492,0.003942275990055765,0.8565708173275864,0.859277157264028
1624633819.554812,0.0887758882752686,1.842281141691023e-05,5.86,4.56,0.0879199430346489,0.017519604414701462,0.3048780560493469,-0.0009765625,0.22265625,0.22571147452191093,0.005164552803642058,0.233227870183492,0.003942275990055765,0.8565708173275864,0.859277157264028
1624633819.554812,0.0887758882752686,1.842281141691023e-05,5.86,4.56,0.0879199430346489,0.017519604414701462,0.3048780560493469,-0.0009765625,0.22265625,0.22571147452191093,0.005164552803642058,0.233227870183492,0.003942275990055765,0.8565708173275864,0.859277157264028
1624633819.554812,0.0887758882752686,1.842281141691023e-05,5.86,4.56,0.0879199430346489,0.017519604414701462,0.3048780560493469,-0.0009765625,0.22265625,0.22571147452191093,0.005164552803642058,0.233227870183492,0.003942275990055765,0.8565708173275864,0.859277157264028
1624633819.554812,0.0887758882752686,1.842281141691023e-05,5.86,4.56,0.0879199430346489,0.017519604414701462,0.3048780560493469,-0.0009765625,0.22265625,0.22571147452191093,0.005164552803642058,0.233227870183492,0.003942275990055765,0.8565708173275864,0.859277157264028
1624633819.554812,0.0887758882752686,1.842281141691023e-05,5.86,4.56,0.0879199430346489,0.017519604414701462,0.3048780560493469,-0.0009765625,0.22265625,0.22571147452191093,0.005164552803642058,0.23659936554067204,0.004360244317922253,0.8565708173275864,0.8588939968088702
1624633819.614812,0.08611085573869545,1.595061382951021e-05,5.86,4.56,0.0879199430346489,0.017519604414701462,0.3048780560493469,-0.0009765625,0.22265625,0.21027165727374797,0.0009682950541585677,0.23659936554067204,0.004360244317922253,0.8564157021468614,0.8588939968088702
1624633819.614812,0.08611085573869545,1.595061382951021e-05,5.86,4.56,0.01688692532479763,0.015891660004854202,0.3048780560493469,-0.0009765625,0.22265625,0.21027165727374797,0.0009682950541585677,0.23659936554067204,0.004360244317922253,0.8564157021468614,0.8588939968088702
1624633819.614812,0.08611085573869545,1.595061382951021e-05,5.86,4.56,0.01688692532479763,0.015891660004854202,0.3048780560493469,-0.0009765625,0.22265625,0.21027165727374797,0.0009682950541585677,0.23659936554067204,0.004360244317922253,0.8564157021468614,0.8588939968088702
1624633819.614812,0.08611085573869545,1.595061382951021e-05,5.86,4.56,0.01688692532479763,0.015891660004854202,0.3048780560493469,-0.0009765625,0.22265625,0.21027165727374797,0.0009682950541585677,0.23659936554067204,0.004360244317922253,0.8564157021468614,0.8588939968088702
1624633819.614812,0.08611085573869545,1.595061382951021e-05,5.86,4.5,0.01688692532479763,0.015891660004854202,0.3048780560493469,-0.0009765625,0.22265625,0.21027165727374797,0.0009682950541585677,0.23684806577174802,0.0026944810792320266,0.8564157021468614,0.8584575878025515
1624633819.674812,0.08170925531235465,1.3840154735271449e-05,5.86,4.5,0.01688692532479763,0.015891660004854202,1.9512195587158203,-0.00830078125,0.04736328125,0.19061365026653884,0.0008966285190345418,0.23684806577174802,0.0026944810792320266,0.8561714563512698,0.8584575878025515
1624633819.674812,0.08170925531235465,1.3840154735271449e-05,5.86,4.5,0.01688692532479763,0.015891660004854202,1.9512195587158203,-0.00830078125,0.04736328125,0.19061365026653884,0.0008966285190345418,0.23684806577174802,0.0026944810792320266,0.8561714563512698,0.8584575878025515
1624633819.674812,0.08170925531235465,1.3840154735271449e-05,5.86,4.5,5.853581114934059e-06,-5.4451920732390136e-05,1.9512195587158203,-0.00830078125,0.04736328125,0.19061365026653884,0.0008966285190345418,0.23684806577174802,0.0026944810792320266,0.8561714563512698,0.8584575878025515
1624633819.674812,0.08170925531235465,1.3840154735271449e-05,5.86,4.5,5.853581114934059e-06,-5.4451920732390136e-05,1.9512195587158203,-0.00830078125,0.04736328125,0.19061365026653884,0.0008966285190345418,0.23361697712528226,0.0019433806996498673,0.8561714563512698,0.8580193543996691
1624633819.674812,0.08170925531235465,1.3840154735271449e-05,5.86,4.5,5.853581114934059e-06,-5.4451920732390136e-05,1.9512195587158203,-0.00830078125,0.04736328125,0.19061365026653884,0.0008966285190345418,0.23361697712528226,0.0019433806996498673,0.8561714563512698,0.8580193543996691
1624633819.712812,0.07749251129572199,1.2182566218216432e-05,5.86,4.5,5.853581114934059e-06,-5.4451920732390136e-05,1.9512195587158203,-0.00830078125,0.04736328125,0.18337035655070538,0.0017152575211421427,0.23361697712528226,0.0019433806996498673,0.8562529595808455,0.8580193543996691
1624633819.712812,0.07749251129572199,1.2182566218216432e-05,5.86,4.5,5.853581114934059e-06,-5.4451920732390136e-05,1.9512195587158203,-0.00830078125,0.04736328125,0.18337035655070538,0.0017152575211421427,0.23361697712528226,0.0019433806996498673,0.8562529595808455,0.8580193543996691
1624633819.712812,0.07749251129572199,1.2182566218216432e-05,5.86,4.5,5.853581114934059e-06,-5.4451920732390136e-05,1.9512195587158203,-0.00830078125,0.04736328125,0.18337035655070538,0.0017152575211421427,0.23361697712528226,0.0019433806996498673,0.8562529595808455,0.8580193543996691
1624633819.712812,0.07749251129572199,1.2182566218216432e-05,5.86,4.5,5.853581114934059e-06,-5.4451920732390136e-05,1.9512195587158203,-0.00830078125,0.04736328125,0.18337035655070538,0.0017152575211421427,0.22867940202129902,0.0018217113474428412,0.8562529595808455,0.8578437041886705
1624633819.712812,0.07749251129572199,1.2182566218216432e-05,5.85,4.48,5.853581114934059e-06,-5.4451920732390136e-05,1.9512195587158203,-0.00830078125,0.04736328125,0.18337035655070538,0.0017152575211421427,0.22867940202129902,0.0018217113474428412,0.8562529595808455,0.8578437041886705
1624633819.734812,0.07284122236854314,1.0876883558470099e-05,5.85,4.48,5.853581114934059e-06,-5.4451920732390136e-05,1.9512195587158203,-0.00830078125,0.04736328125,0.1693683170235897,0.001668986443840514,0.22867940202129902,0.0018217113474428412,0.8560818714247731,0.8578437041886705
1624633819.734812,0.07284122236854314,1.0876883558470099e-05,5.85,4.48,5.853581114934059e-06,-5.4451920732390136e-05,1.0365853309631348,-0.00634765625,0.04052734375,0.1693683170235897,0.001668986443840514,0.22867940202129902,0.0018217113474428412,0.8560818714247731,0.8578437041886705
1624633819.734812,0.07284122236854314,1.0876883558470099e-05,5.85,4.48,5.853581114934059e-06,-5.4451920732390136e-05,1.0365853309631348,-0.00634765625,0.04052734375,0.1693683170235897,0.001668986443840514,0.22867940202129902,0.0018217113474428412,0.8560818714247731,0.8578437041886705
1624633819.734812,0.07284122236854314,1.0876883558470099e-05,5.85,4.48,5.853581114934059e-06,-5.4451920732390136e-05,1.0365853309631348,-0.00634765625,0.04052734375,0.1693683170235897,0.001668986443840514,0.2215235795603732,0.0017370562257014205,0.8560818714247731,0.8575025218685116
1624633819.734812,0.07284122236854314,1.0876883558470099e-05,5.85,4.48,5.853581114934059e-06,-5.4451920732390136e-05,1.0365853309631348,-0.00634765625,0.04052734375,0.1693683170235897,0.001668986443840514,0.2215235795603732,0.0017370562257014205,0.8560818714247731,0.8575025218685116
1624633819.816812,0.06605312119213895,9.654797811067355e-06,5.85,4.48,5.853581114934059e-06,-5.4451920732390136e-05,1.0365853309631348,-0.00634765625,0.04052734375,0.14543716633272777,0.003053703284111246,0.2215235795603732,0.0017370562257014205,0.8561386774435993,0.8575025218685116
1624633819.816812,0.06605312119213895,9.654797811067355e-06,5.85,4.48,5.853581114934059e-06,-5.4451920732390136e-05,1.0365853309631348,-0.00634765625,0.04052734375,0.14543716633272777,0.003053703284111246,0.2215235795603732,0.0017370562257014205,0.8561386774435993,0.8575025218685116
1624633819.816812,0.06605312119213895,9.654797811067355e-06,5.85,4.48,5.853581114934059e-06,-5.4451920732390136e-05,1.0365853309631348,-0.00634765625,0.04052734375,0.14543716633272777,0.003053703284111246,0.2215235795603732,0.0017370562257014205,0.8561386774435993,0.8575025218685116
1624633819.816812,0.06605312119213895,9.654797811067355e-06,5.85,4.48,5.853581114934059e-06,-5.4451920732390136e-05,1.0365853309631348,-0.00634765625,0.04052734375,0.14543716633272777,0.003053703284111246,0.21454885773360433,0.0023114883750115943,0.8561386774435993,0.8574160913838949
1624633819.816812,0.06605312119213895,9.654797811067355e-06,5.85,4.46,5.853581114934059e-06,-5.4451920732390136e-05,1.0365853309631348,-0.00634765625,0.04052734375,0.1460113120289397,0.0029291578286934974,0.21454885773360433,0.0023114883750115943,0.8560645411866017,0.8574160913838949
1624633819.854812,0.060269278020418544,8.61245302871899e-06,5.85,4.46,0.0077436999417841434,0.002125171711668372,1.0365853309631348,-0.00634765625,0.04052734375,0.1460113120289397,0.0029291578286934974,0.21454885773360433,0.0023114883750115943,0.8560645411866017,0.8574160913838949
1624633819.854812,0.060269278020418544,8.61245302871899e-06,5.85,4.46,0.0077436999417841434,0.002125171711668372,1.402438998222351,-0.01220703125,0.021484375,0.1460113120289397,0.0029291578286934974,0.21454885773360433,0.0023114883750115943,0.8560645411866017,0.8574160913838949
1624633819.854812,0.060269278020418544,8.61245302871899e-06,5.85,4.46,0.0077436999417841434,0.002125171711668372,1.402438998222351,-0.01220703125,0.021484375,0.1460113120289397,0.0029291578286934974,0.21454885773360433,0.0023114883750115943,0.8560645411866017,0.8574160913838949
1624633819.854812,0.060269278020418544,8.61245302871899e-06,5.85,4.46,0.0077436999417841434,0.002125171711668372,1.402438998222351,-0.01220703125,0.021484375,0.1460113120289397,0.0029291578286934974,0.2060320295139338,0.00249868328749985,0.8560645411866017,0.857190869080042
1624633819.854812,0.060269278020418544,8.61245302871899e-06,5.85,4.46,0.0077436999417841434,0.002125171711668372,1.402438998222351,-0.01220703125,0.021484375,0.1460113120289397,0.0029291578286934974,0.2060320295139338,0.00249868328749985,0.8560645411866017,0.857190869080042
1624633819.9208121,0.05558692164972171,7.6186443911886495e-06,5.85,4.46,0.0077436999417841434,0.002125171711668372,1.402438998222351,-0.01220703125,0.021484375,0.1545311036617138,0.0021659963770459508,0.2060320295139338,0.00249868328749985,0.856075170703357,0.857190869080042
1624633819.9208121,0.05558692164972171,7.6186443911886495e-06,5.85,4.46,0.048243869096040726,-0.014813446439802647,1.402438998222351,-0.01220703125,0.021484375,0.1545311036617138,0.0021659963770459508,0.2060320295139338,0.00249868328749985,0.856075170703357,0.857190869080042
1624633819.9208121,0.05558692164972171,7.6186443911886495e-06,5.85,4.46,0.048243869096040726,-0.014813446439802647,1.402438998222351,-0.01220703125,0.021484375,0.1545311036617138,0.0021659963770459508,0.2060320295139338,0.00249868328749985,0.856075170703357,0.857190869080042
1624633819.9208121,0.05558692164972171,7.6186443911886495e-06,5.85,4.46,0.048243869096040726,-0.014813446439802647,1.402438998222351,-0.01220703125,0.021484375,0.1545311036617138,0.0021659963770459508,0.20107390838838418,0.0023209783890929814,0.856075170703357,0.8570887027467881
1624633819.9208121,0.05558692164972171,7.6186443911886495e-06,5.85,4.46,0.048243869096040726,-0.014813446439802647,-0.24390244483947754,-0.04150390625,-0.10791015625,0.16068078086655502,0.0020339579914100195,0.20107390838838418,0.0023209783890929814,0.8558752819938488,0.8570887027467881
1624633819.974812,0.051901960567671004,6.74049953985563e-06,5.85,4.46,0.048243869096040726,-0.014813446439802647,-0.24390244483947754,-0.04150390625,-0.10791015625,0.16068078086655502,0.0020339579914100195,0.20107390838838418,0.0023209783890929814,0.8558752819938488,0.8570887027467881
1624633819.974812,0.051901960567671004,6.74049953985563e-06,5.85,4.46,0.13547766208648682,-0.01739439181983471,-0.24390244483947754,-0.04150390625,-0.10791015625,0.16068078086655502,0.0020339579914100195,0.20107390838838418,0.0023209783890929814,0.8558752819938488,0.8570887027467881
1624633819.974812,0.051901960567671004,6.74049953985563e-06,5.85,4.46,0.13547766208648682,-0.01739439181983471,-0.24390244483947754,-0.04150390625,-0.10791015625,0.16068078086655502,0.0020339579914100195,0.1970383457193045,0.002179218186622319,0.8558752819938488,0.8569171884680863
1624633819.974812,0.051901960567671004,6.74049953985563e-06,5.85,4.46,0.13547766208648682,-0.01739439181983471,-0.24390244483947754,-0.04150390625,-0.10791015625,0.16068078086655502,0.0020339579914100195,0.1970383457193045,0.002179218186622319,0.8558752819938488,0.8569171884680863
1624633819.974812,0.051901960567671004,6.74049953985563e-06,5.85,4.46,0.13547766208648682,-0.01739439181983471,-0.24390244483947754,-0.04150390625,-0.10791015625,0.16882443441018544,0.0009246986517563738,0.1970383457193045,0.002179218186622319,0.8558788350357361,0.8569171884680863
1624633820.004812,0.04959663783316119,6.032956230067399e-06,5.85,4.46,0.13547766208648682,-0.01739439181983471,-0.24390244483947754,-0.04150390625,-0.10791015625,0.16882443441018544,0.0009246986517563738,0.1970383457193045,0.002179218186622319,0.8558788350357361,0.8569171884680863
1624633820.004812,0.04959663783316119,6.032956230067399e-06,5.85,4.46,0.13547766208648682,-0.01739439181983471,-0.24390244483947754,-0.04150390625,-0.10791015625,0.16882443441018544,0.0009246986517563738,0.1970383457193045,0.002179218186622319,0.8558788350357361,0.8569171884680863
1624633820.004812,0.04959663783316119,6.032956230067399e-06,5.85,4.46,0.13547766208648682,-0.01739439181983471,-0.24390244483947754,-0.04150390625,-0.10791015625,0.16882443441018544,0.0009246986517563738,0.1970383457193045,0.002179218186622319,0.8558788350357361,0.8569171884680863
1624633820.004812,0.04959663783316119,6.032956230067399e-06,5.85,4.46,0.2527226507663727,0.017386088147759438,-0.24390244483947754,-0.04150390625,-0.10791015625,0.16882443441018544,0.0009246986517563738,0.19419670678187068,0.0016340684898884777,0.8558788350357361,0.8568138533679155
1624633820.034812,0.04768392959752127,5.302505267539497e-06,5.85,4.46,0.2527226507663727,0.017386088147759438,1.585365891456604,-0.0712890625,-0.5029296875,0.17058999593665958,0.000897283048681899,0.19419670678187068,0.0016340684898884777,0.8559138952066359,0.8568138533679155
1624633820.034812,0.04768392959752127,5.302505267539497e-06,5.85,4.46,0.2527226507663727,0.017386088147759438,1.585365891456604,-0.0712890625,-0.5029296875,0.17058999593665958,0.000897283048681899,0.19419670678187068,0.0016340684898884777,0.8559138952066359,0.8568138533679155
1624633820.034812,0.04768392959752127,5.302505267539497e-06,5.85,4.46,0.2527226507663727,0.017386088147759438,1.585365891456604,-0.0712890625,-0.5029296875,0.17058999593665958,0.000897283048681899,0.1920411667244158,0.0013647047689012998,0.8559138952066359,0.8566696208525606
1624633820.034812,0.04768392959752127,5.302505267539497e-06,5.85,4.46,0.2527226507663727,0.017386088147759438,1.585365891456604,-0.0712890625,-0.5029296875,0.17058999593665958,0.000897283048681899,0.1920411667244158,0.0013647047689012998,0.8559138952066359,0.8566696208525606
1624633820.034812,0.04768392959752127,5.302505267539497e-06,5.85,4.46,0.2527226507663727,0.017386088147759438,1.585365891456604,-0.0712890625,-0.5029296875,0.17058999593665958,0.000897283048681899,0.1920411667244158,0.0013647047689012998,0.8559138952066359,0.8566696208525606
1624633820.034812,0.04768392959752127,5.302505267539497e-06,5.85,4.46,0.35860392451286316,0.01636677235364914,1.585365891456604,-0.0712890625,-0.5029296875,0.18854681453379313,0.006173713522054494,0.1920411667244158,0.0013647047689012998,0.8567605545414924,0.8566696208525606
1624633820.108812,0.047110179197451627,4.741411202254961e-06,5.85,4.46,0.35860392451286316,0.01636677235364914,1.585365891456604,-0.0712890625,-0.5029296875,0.18854681453379313,0.006173713522054494,0.1920411667244158,0.0013647047689012998,0.8567605545414924,0.8566696208525606
1624633820.108812,0.047110179197451627,4.741411202254961e-06,5.85,4.46,0.35860392451286316,0.01636677235364914,1.585365891456604,-0.0712890625,-0.5029296875,0.18854681453379313,0.006173713522054494,0.19447661254853,0.003530165173508046,0.8567605545414924,0.8568668620005823
1624633820.108812,0.047110179197451627,4.741411202254961e-06,5.85,4.46,0.35860392451286316,0.01636677235364914,1.585365891456604,-0.0712890625,-0.5029296875,0.18854681453379313,0.006173713522054494,0.19447661254853,0.003530165173508046,0.8567605545414924,0.8568668620005823
1624633820.108812,0.047110179197451627,4.741411202254961e-06,5.85,4.46,0.35860392451286316,0.01636677235364914,1.585365891456604,-0.0712890625,-0.5029296875,0.18854681453379313,0.006173713522054494,0.19447661254853,0.003530165173508046,0.8567605545414924,0.8568668620005823
1624633820.154812,0.04610131345924724,4.979821585401167e-06,5.84,4.44,0.35860392451286316,0.01636677235364914,1.585365891456604,-0.0712890625,-0.5029296875,0.1843136846238779,0.0059125462854457125,0.19447661254853,0.003530165173508046,0.8575353709225868,0.8568668620005823
1624633820.154812,0.04610131345924724,4.979821585401167e-06,5.84,4.44,0.4468890130519867,0.0011228701332584023,2.865853786468506,0.36474609375,0.82568359375,0.1843136846238779,0.0059125462854457125,0.19447661254853,0.003530165173508046,0.8575353709225868,0.8568668620005823
1624633820.154812,0.04610131345924724,4.979821585401167e-06,5.84,4.44,0.4468890130519867,0.0011228701332584023,2.865853786468506,0.36474609375,0.82568359375,0.1843136846238779,0.0059125462854457125,0.194722012650743,0.00440667020021222,0.8575353709225868,0.8571702303556493
1624633820.154812,0.04610131345924724,4.979821585401167e-06,5.84,4.44,0.4468890130519867,0.0011228701332584023,2.865853786468506,0.36474609375,0.82568359375,0.1843136846238779,0.0059125462854457125,0.194722012650743,0.00440667020021222,0.8575353709225868,0.8571702303556493
1624633820.154812,0.04610131345924724,4.979821585401167e-06,5.84,4.44,0.4468890130519867,0.0011228701332584023,2.865853786468506,0.36474609375,0.82568359375,0.1843136846238779,0.0059125462854457125,0.194722012650743,0.00440667020021222,0.8575353709225868,0.8571702303556493
1624633820.154812,0.04610131345924724,4.979821585401167e-06,5.84,4.44,0.4468890130519867,0.0011228701332584023,2.865853786468506,0.36474609375,0.82568359375,0.18418513130405417,0.006583441936066301,0.194722012650743,0.00440667020021222,0.8579337149606001,0.8571702303556493
1624633820.214812,0.04498478268608826,6.5114446178044064e-06,5.84,4.44,0.4414141774177551,-0.018467187881469727,2.865853786468506,0.36474609375,0.82568359375,0.18418513130405417,0.006583441936066301,0.194722012650743,0.00440667020021222,0.8579337149606001,0.8571702303556493
1624633820.214812,0.04498478268608826,6.5114446178044064e-06,5.84,4.44,0.4414141774177551,-0.018467187881469727,2.865853786468506,0.36474609375,0.82568359375,0.18418513130405417,0.006583441936066301,0.194722012650743,0.00440667020021222,0.8579337149606001,0.8571702303556493
1624633820.214812,0.04498478268608826,6.5114446178044064e-06,5.84,4.44,0.4414141774177551,-0.018467187881469727,2.865853786468506,0.36474609375,0.82568359375,0.18418513130405417,0.006583441936066301,0.194722012650743,0.00440667020021222,0.8579337149606001,0.8571702303556493
1624633820.214812,0.04498478268608826,6.5114446178044064e-06,5.82,4.41,0.4414141774177551,-0.018467187881469727,2.865853786468506,0.36474609375,0.82568359375,0.18418513130405417,0.006583441936066301,0.194722012650743,0.00440667020021222,0.8579337149606001,0.8571702303556493
1624633820.274812,0.04412342783190176,7.550614794354495e-06,5.82,4.41,0.4414141774177551,-0.018467187881469727,2.865853786468506,0.36474609375,0.82568359375,0.1879767841593214,0.006149765703671859,0.19535992740929697,0.005378475668302932,0.8575144531570474,0.857580825012757
1624633820.274812,0.04412342783190176,7.550614794354495e-06,5.82,4.41,0.4414141774177551,-0.018467187881469727,0.18292683362960815,-0.1181640625,0.14111328125,0.1879767841593214,0.006149765703671859,0.19535992740929697,0.005378475668302932,0.8575144531570474,0.857580825012757
1624633820.274812,0.04412342783190176,7.550614794354495e-06,5.82,4.41,0.3578167259693146,-0.002286287024617195,0.18292683362960815,-0.1181640625,0.14111328125,0.1879767841593214,0.006149765703671859,0.19535992740929697,0.005378475668302932,0.8575144531570474,0.857580825012757
1624633820.274812,0.04412342783190176,7.550614794354495e-06,5.82,4.41,0.3578167259693146,-0.002286287024617195,0.18292683362960815,-0.1181640625,0.14111328125,0.1879767841593214,0.006149765703671859,0.19535992740929697,0.005378475668302932,0.8575144531570474,0.857580825012757
1624633820.274812,0.04412342783190176,7.550614794354495e-06,5.82,4.41,0.3578167259693146,-0.002286287024617195,0.18292683362960815,-0.1181640625,0.14111328125,0.1879767841593214,0.006149765703671859,0.1964152329130144,0.005651388597515879,0.8575144531570474,0.8578381920657123
1624633820.316812,0.042678992192611835,8.344890753526891e-06,5.82,4.41,0.3578167259693146,-0.002286287024617195,0.18292683362960815,-0.1181640625,0.14111328125,0.18008174882256273,0.004607032384801785,0.1964152329130144,0.005651388597515879,0.8576840384350336,0.8578381920657123
1624633820.316812,0.042678992192611835,8.344890753526891e-06,5.82,4.41,0.3578167259693146,-0.002286287024617195,0.18292683362960815,-0.1181640625,0.14111328125,0.18008174882256273,0.004607032384801785,0.1964152329130144,0.005651388597515879,0.8576840384350336,0.8578381920657123
1624633820.316812,0.042678992192611835,8.344890753526891e-06,5.82,4.41,0.3578167259693146,-0.002286287024617195,0.18292683362960815,-0.1181640625,0.14111328125,0.18008174882256273,0.004607032384801785,0.1964152329130144,0.005651388597515879,0.8576840384350336,0.8578381920657123
1624633820.316812,0.042678992192611835,8.344890753526891e-06,5.81,4.4,0.22579683363437653,-0.01853768341243267,0.18292683362960815,-0.1181640625,0.14111328125,0.19061094300279116,0.00449562591619734,0.19551226986830222,0.005203036564640919,0.857094087174243,0.8580079237876233
1624633820.316812,0.042678992192611835,8.344890753526891e-06,5.81,4.4,0.22579683363437653,-0.01853768341243267,2.1341464519500732,-0.02099609375,0.22412109375,0.19061094300279116,0.00449562591619734,0.19551226986830222,0.005203036564640919,0.857094087174243,0.8580079237876233
1624633820.316812,0.042678992192611835,8.344890753526891e-06,5.81,4.4,0.22579683363437653,-0.01853768341243267,2.1341464519500732,-0.02099609375,0.22412109375,0.19061094300279116,0.00449562591619734,0.19551226986830222,0.005203036564640919,0.857094087174243,0.8580079237876233
1624633820.334812,0.042248618586136426,8.137455533508408e-06,5.81,4.4,0.22579683363437653,-0.01853768341243267,2.1341464519500732,-0.02099609375,0.22412109375,0.19061094300279116,0.00449562591619734,0.19551226986830222,0.005203036564640919,0.857094087174243,0.8580079237876233
1624633820.334812,0.042248618586136426,8.137455533508408e-06,5.81,4.4,0.22579683363437653,-0.01853768341243267,2.1341464519500732,-0.02099609375,0.22412109375,0.19061094300279116,0.00449562591619734,0.19551226986830222,0.005203036564640919,0.857094087174243,0.8580079237876233
1624633820.334812,0.042248618586136426,8.137455533508408e-06,5.81,4.4,0.22579683363437653,-0.01853768341243267,2.1341464519500732,-0.02099609375,0.22412109375,0.19061094300279116,0.00449562591619734,0.19551226986830222,0.005203036564640919,0.857094087174243,0.8580079237876233
1624633820.334812,0.042248618586136426,8.137455533508408e-06,5.81,4.4,0.10974493622779846,0.001172427786514163,2.1341464519500732,-0.02099609375,0.22412109375,0.19061094300279116,0.00449562591619734,0.19551226986830222,0.005203036564640919,0.857094087174243,0.8580079237876233
1624633820.4208121,0.04093957885589969,7.032638927980403e-06,5.81,4.4,0.10974493622779846,0.001172427786514163,2.1341464519500732,-0.02099609375,0.22412109375,0.1833182702246071,6.871068699047193e-05,0.19546014516510757,0.004953491867884161,0.8564452148944636,0.857903745360888
1624633820.4208121,0.04093957885589969,7.032638927980403e-06,5.81,4.4,0.10974493622779846,0.001172427786514163,2.1341464519500732,-0.02099609375,0.22412109375,0.1833182702246071,6.871068699047193e-05,0.19546014516510757,0.004953491867884161,0.8564452148944636,0.857903745360888
1624633820.4208121,0.04093957885589969,7.032638927980403e-06,5.81,4.4,0.10974493622779846,0.001172427786514163,2.1341464519500732,-0.02099609375,0.22412109375,0.1833182702246071,6.871068699047193e-05,0.19546014516510757,0.004953491867884161,0.8564452148944636,0.857903745360888
1624633820.4208121,0.04093957885589969,7.032638927980403e-06,5.81,4.4,0.10974493622779846,0.001172427786514163,2.1341464519500732,-0.02099609375,0.22412109375,0.1833182702246071,6.871068699047193e-05,0.19546014516510757,0.004953491867884161,0.8564452148944636,0.857903745360888
1624633820.4208121,0.04093957885589969,7.032638927980403e-06,5.81,4.4,0.10974493622779846,0.001172427786514163,2.1341464519500732,-0.02099609375,0.22412109375,0.1833182702246071,6.871068699047193e-05,0.1965943737844429,0.002681175331193337,0.8564452148944636,0.8579522968663218
1624633820.454812,0.03946189799074757,5.784134166916235e-06,5.82,4.38,0.015914926305413246,0.0009953421540558338,2.1341464519500732,-0.02099609375,0.22412109375,0.17974469999343448,5.3784102221635764e-05,0.1965943737844429,0.002681175331193337,0.8561743326197169,0.8579522968663218
1624633820.454812,0.03946189799074757,5.784134166916235e-06,5.82,4.38,0.015914926305413246,0.0009953421540558338,1.7682926654815674,-0.02734375,0.0966796875,0.17974469999343448,5.3784102221635764e-05,0.1965943737844429,0.002681175331193337,0.8561743326197169,0.8579522968663218
1624633820.454812,0.03946189799074757,5.784134166916235e-06,5.82,4.38,0.015914926305413246,0.0009953421540558338,1.7682926654815674,-0.02734375,0.0966796875,0.17974469999343448,5.3784102221635764e-05,0.1965943737844429,0.002681175331193337,0.8561743326197169,0.8579522968663218
1624633820.454812,0.03946189799074757,5.784134166916235e-06,5.82,4.38,0.015914926305413246,0.0009953421540558338,1.7682926654815674,-0.02734375,0.0966796875,0.17974469999343448,5.3784102221635764e-05,0.19516695438859863,0.0017077823566539196,0.8561743326197169,0.8576233232113527
1624633820.454812,0.03946189799074757,5.784134166916235e-06,5.82,4.38,0.015914926305413246,0.0009953421540558338,1.7682926654815674,-0.02734375,0.0966796875,0.17974469999343448,5.3784102221635764e-05,0.19516695438859863,0.0017077823566539196,0.8561743326197169,0.8576233232113527
1624633820.514812,0.036773273547375494,4.433183107837091e-06,5.82,4.38,0.015914926305413246,0.0009953421540558338,1.7682926654815674,-0.02734375,0.0966796875,0.16527264021117657,-0.0040655892098231065,0.19516695438859863,0.0017077823566539196,0.8560907283586344,0.8576233232113527
1624633820.514812,0.036773273547375494,4.433183107837091e-06,5.82,4.38,3.1320282687374856e-06,2.913514617830515e-05,1.7682926654815674,-0.02734375,0.0966796875,0.16527264021117657,-0.0040655892098231065,0.19516695438859863,0.0017077823566539196,0.8560907283586344,0.8576233232113527
1624633820.514812,0.036773273547375494,4.433183107837091e-06,5.82,4.38,3.1320282687374856e-06,2.913514617830515e-05,1.7682926654815674,-0.02734375,0.0966796875,0.16527264021117657,-0.0040655892098231065,0.19516695438859863,0.0017077823566539196,0.8560907283586344,0.8576233232113527
1624633820.514812,0.036773273547375494,4.433183107837091e-06,5.82,4.38,3.1320282687374856e-06,2.913514617830515e-05,1.7682926654815674,-0.02734375,0.0966796875,0.16527264021117657,-0.0040655892098231065,0.19516695438859863,0.0017077823566539196,0.8560907283586344,0.8576233232113527
1624633820.514812,0.036773273547375494,4.433183107837091e-06,5.84,4.35,3.1320282687374856e-06,2.913514617830515e-05,1.7682926654815674,-0.02734375,0.0966796875,0.16527264021117657,-0.0040655892098231065,0.19240431119399926,-0.0009137616368176777,0.8560907283586344,0.8572743899627382
1624633820.574812,0.03278892894607727,3.1530796024066434e-06,5.84,4.35,3.1320282687374856e-06,2.913514617830515e-05,0.060975611209869385,-0.01953125,-0.01123046875,0.14773714215790673,-0.0038190134149524496,0.19240431119399926,-0.0009137616368176777,0.8559181435165399,0.8572743899627382
1624633820.574812,0.03278892894607727,3.1530796024066434e-06,5.84,4.35,3.1320282687374856e-06,2.913514617830515e-05,0.060975611209869385,-0.01953125,-0.01123046875,0.14773714215790673,-0.0038190134149524496,0.19240431119399926,-0.0009137616368176777,0.8559181435165399,0.8572743899627382
1624633820.574812,0.03278892894607727,3.1530796024066434e-06,5.84,4.35,3.1320282687374856e-06,2.913514617830515e-05,0.060975611209869385,-0.01953125,-0.01123046875,0.14773714215790673,-0.0038190134149524496,0.19240431119399926,-0.0009137616368176777,0.8559181435165399,0.8572743899627382
1624633820.574812,0.03278892894607727,3.1530796024066434e-06,5.84,4.35,3.1320282687374856e-06,2.913514617830515e-05,0.060975611209869385,-0.01953125,-0.01123046875,0.14773714215790673,-0.0038190134149524496,0.18700163828185076,-0.002033036385376499,0.8559181435165399,0.8569055776549968
1624633820.574812,0.03278892894607727,3.1530796024066434e-06,5.84,4.35,3.1320282687374856e-06,2.913514617830515e-05,0.060975611209869385,-0.01953125,-0.01123046875,0.14773714215790673,-0.0038190134149524496,0.18700163828185076,-0.002033036385376499,0.8559181435165399,0.8569055776549968
1624633820.608812,0.029245559085204095,2.180507591942908e-06,5.84,4.35,3.1320282687374856e-06,2.913514617830515e-05,0.060975611209869385,-0.01953125,-0.01123046875,0.14271405574334334,-0.0014520857038524146,0.18700163828185076,-0.002033036385376499,0.8559155163969098,0.8569055776549968
1624633820.608812,0.029245559085204095,2.180507591942908e-06,5.84,4.35,3.1320282687374856e-06,2.913514617830515e-05,0.060975611209869385,-0.01953125,-0.01123046875,0.14271405574334334,-0.0014520857038524146,0.18700163828185076,-0.002033036385376499,0.8559155163969098,0.8569055776549968
1624633820.608812,0.029245559085204095,2.180507591942908e-06,5.84,4.35,3.1320282687374856e-06,2.913514617830515e-05,0.060975611209869385,-0.01953125,-0.01123046875,0.14271405574334334,-0.0014520857038524146,0.18700163828185076,-0.002033036385376499,0.8559155163969098,0.8569055776549968
1624633820.608812,0.029245559085204095,2.180507591942908e-06,5.84,4.35,3.1320282687374856e-06,2.913514617830515e-05,0.060975611209869385,-0.01953125,-0.01123046875,0.14271405574334334,-0.0014520857038524146,0.18135452189095141,-0.001806278049157096,0.8559155163969098,0.8567408689349543
1624633820.608812,0.029245559085204095,2.180507591942908e-06,5.87,4.35,3.1320282687374856e-06,2.913514617830515e-05,0.060975611209869385,-0.01953125,-0.01123046875,0.14271405574334334,-0.0014520857038524146,0.18135452189095141,-0.001806278049157096,0.8559155163969098,0.8567408689349543
1624633820.634812,0.025303034332529995,1.2488220635659121e-06,5.87,4.35,3.1320282687374856e-06,2.913514617830515e-05,1.2804877758026123,-0.02685546875,0.00439453125,0.1302892997482597,-0.0014123621230798678,0.18135452189095141,-0.001806278049157096,0.8559257028262391,0.8567408689349543
1624633820.634812,0.025303034332529995,1.2488220635659121e-06,5.87,4.35,3.1320282687374856e-06,2.913514617830515e-05,1.2804877758026123,-0.02685546875,0.00439453125,0.1302892997482597,-0.0014123621230798678,0.18135452189095141,-0.001806278049157096,0.8559257028262391,0.8567408689349543
1624633820.634812,0.025303034332529995,1.2488220635659121e-06,5.87,4.35,3.1320282687374856e-06,2.913514617830515e-05,1.2804877758026123,-0.02685546875,0.00439453125,0.1302892997482597,-0.0014123621230798678,0.18135452189095141,-0.001806278049157096,0.8559257028262391,0.8567408689349543
1624633820.634812,0.025303034332529995,1.2488220635659121e-06,5.87,4.35,3.1320282687374856e-06,2.913514617830515e-05,1.2804877758026123,-0.02685546875,0.00439453125,0.1302892997482597,-0.0014123621230798678,0.17460254632139055,-0.0016921822487972141,0.8559257028262391,0.8565605751861799
1624633820.634812,0.025303034332529995,1.2488220635659121e-06,5.87,4.35,3.1320282687374856e-06,2.913514617830515e-05,1.2804877758026123,-0.02685546875,0.00439453125,0.1302892997482597,-0.0014123621230798678,0.17460254632139055,-0.0016921822487972141,0.8559257028262391,0.8565605751861799
1624633820.712812,0.01999219671066999,2.679102082806649e-07,5.87,4.35,3.1320282687374856e-06,2.913514617830515e-05,1.2804877758026123,-0.02685546875,0.00439453125,0.11188941121418441,0.0007384625963370863,0.17460254632139055,-0.0016921822487972141,0.855979868944906,0.8565605751861799
1624633820.712812,0.01999219671066999,2.679102082806649e-07,5.87,4.35,3.1320282687374856e-06,2.913514617830515e-05,1.2804877758026123,-0.02685546875,0.00439453125,0.11188941121418441,0.0007384625963370863,0.17460254632139055,-0.0016921822487972141,0.855979868944906,0.8565605751861799
1624633820.712812,0.01999219671066999,2.679102082806649e-07,5.87,4.35,3.1320282687374856e-06,2.913514617830515e-05,1.2804877758026123,-0.02685546875,0.00439453125,0.11188941121418441,0.0007384625963370863,0.17460254632139055,-0.0016921822487972141,0.855979868944906,0.8565605751861799
1624633820.712812,0.01999219671066999,2.679102082806649e-07,5.87,4.35,3.1320282687374856e-06,2.913514617830515e-05,1.2804877758026123,-0.02685546875,0.00439453125,0.11188941121418441,0.0007384625963370863,0.16645047700336316,-0.0006033342479572622,0.855979868944906,0.8564152251223576
1624633820.712812,0.01999219671066999,2.679102082806649e-07,5.87,4.33,3.1320282687374856e-06,2.913514617830515e-05,1.2804877758026123,-0.02685546875,0.00439453125,0.11188941121418441,0.0007384625963370863,0.16645047700336316,-0.0006033342479572622,0.855979868944906,0.8564152251223576
1624633820.754812,0.01444937430276949,-6.680430389058736e-07,5.87,4.33,3.1320282687374856e-06,2.913514617830515e-05,1.2804877758026123,-0.02685546875,0.00439453125,0.09930811198960156,0.0007062094483593523,0.16645047700336316,-0.0006033342479572622,0.8559829119726851,0.8564152251223576
1624633820.754812,0.01444937430276949,-6.680430389058736e-07,5.87,4.33,3.1320282687374856e-06,2.913514617830515e-05,1.5243902206420898,-0.02197265625,0.00439453125,0.09930811198960156,0.0007062094483593523,0.16645047700336316,-0.0006033342479572622,0.8559829119726851,0.8564152251223576
1624633820.754812,0.01444937430276949,-6.680430389058736e-07,5.87,4.33,3.1320282687374856e-06,2.913514617830515e-05,1.5243902206420898,-0.02197265625,0.00439453125,0.09930811198960156,0.0007062094483593523,0.16645047700336316,-0.0006033342479572622,0.8559829119726851,0.8564152251223576
1624633820.754812,0.01444937430276949,-6.680430389058736e-07,5.87,4.33,3.1320282687374856e-06,2.913514617830515e-05,1.5243902206420898,-0.02197265625,0.00439453125,0.09930811198960156,0.0007062094483593523,0.15672679825995928,-0.00014421481939413597,0.8559829119726851,0.8563362577228363
1624633820.754812,0.01444937430276949,-6.680430389058736e-07,5.87,4.33,3.1320282687374856e-06,2.913514617830515e-05,1.5243902206420898,-0.02197265625,0.00439453125,0.09930811198960156,0.0007062094483593523,0.15672679825995928,-0.00014421481939413597,0.8559829119726851,0.8563362577228363
1624633820.816812,0.008445913835095518,-1.5695705795889275e-06,5.87,4.33,3.1320282687374856e-06,2.913514617830515e-05,1.5243902206420898,-0.02197265625,0.00439453125,0.0861324477479093,0.0011156882311351844,0.15672679825995928,-0.00014421481939413597,0.8560048679107696,0.8563362577228363
1624633820.816812,0.008445913835095518,-1.5695705795889275e-06,5.87,4.33,3.1320282687374856e-06,2.913514617830515e-05,1.5243902206420898,-0.02197265625,0.00439453125,0.0861324477479093,0.0011156882311351844,0.15672679825995928,-0.00014421481939413597,0.8560048679107696,0.8563362577228363
1624633820.816812,0.008445913835095518,-1.5695705795889275e-06,5.87,4.33,3.1320282687374856e-06,2.913514617830515e-05,1.5243902206420898,-0.02197265625,0.00439453125,0.0861324477479093,0.0011156882311351844,0.15672679825995928,-0.00014421481939413597,0.8560048679107696,0.8563362577228363
1624633820.816812,0.008445913835095518,-1.5695705795889275e-06,5.87,4.33,3.1320282687374856e-06,2.913514617830515e-05,1.5243902206420898,-0.02197265625,0.00439453125,0.0861324477479093,0.0011156882311351844,0.14617366635014842,0.0004057524784060548,0.8560048679107696,0.8562984264828735
1624633820.816812,0.008445913835095518,-1.5695705795889275e-06,5.88,4.32,3.1320282687374856e-06,2.913514617830515e-05,1.5243902206420898,-0.02197265625,0.00439453125,0.0861324477479093,0.0011156882311351844,0.14617366635014842,0.0004057524784060548,0.8560048679107696,0.8562984264828735
1624633820.8748121,0.0023352774695519275,-2.419460621291289e-06,5.88,4.32,3.1320282687374856e-06,2.913514617830515e-05,1.5243902206420898,-0.02197265625,0.00439453125,0.07492529469132722,0.00104812690901471,0.14617366635014842,0.0004057524784060548,0.8560074928581791,0.8562984264828735
1624633820.8748121,0.0023352774695519275,-2.419460621291289e-06,5.88,4.32,3.1320282687374856e-06,2.913514617830515e-05,1.402438998222351,-0.00927734375,0.0126953125,0.07492529469132722,0.00104812690901471,0.14617366635014842,0.0004057524784060548,0.8560074928581791,0.8562984264828735
1624633820.8748121,0.0023352774695519275,-2.419460621291289e-06,5.88,4.32,3.057456069655018e-06,2.8441452741390094e-05,1.402438998222351,-0.00927734375,0.0126953125,0.07492529469132722,0.00104812690901471,0.14617366635014842,0.0004057524784060548,0.8560074928581791,0.8562984264828735
1624633820.8748121,0.0023352774695519275,-2.419460621291289e-06,5.88,4.32,3.057456069655018e-06,2.8441452741390094e-05,1.402438998222351,-0.00927734375,0.0126953125,0.07492529469132722,0.00104812690901471,0.13499887511223557,0.0006324591058994388,0.8560074928581791,0.8562786447378649
1624633820.8748121,0.0023352774695519275,-2.419460621291289e-06,5.88,4.32,3.057456069655018e-06,2.8441452741390094e-05,1.402438998222351,-0.00927734375,0.0126953125,0.07492529469132722,0.00104812690901471,0.13499887511223557,0.0006324591058994388,0.8560074928581791,0.8562786447378649
1624633820.9208121,-0.002740131263729344,-3.0858100818188613e-06,5.88,4.32,3.057456069655018e-06,2.8441452741390094e-05,1.402438998222351,-0.00927734375,0.0126953125,0.07147873084638842,0.0011116088908366493,0.13499887511223557,0.0006324591058994388,0.8560605472504271,0.8562786447378649
1624633820.9208121,-0.002740131263729344,-3.0858100818188613e-06,5.88,4.32,3.057456069655018e-06,2.8441452741390094e-05,1.402438998222351,-0.00927734375,0.0126953125,0.07147873084638842,0.0011116088908366493,0.12541740690886313,0.000833987158144226,0.8560605472504271,0.8562972413732045
1624633820.9208121,-0.002740131263729344,-3.0858100818188613e-06,5.88,4.32,3.057456069655018e-06,2.8441452741390094e-05,1.402438998222351,-0.00927734375,0.0126953125,0.07147873084638842,0.0011116088908366493,0.12541740690886313,0.000833987158144226,0.8560605472504271,0.8562972413732045
1624633820.9208121,-0.002740131263729344,-3.0858100818188613e-06,5.88,4.32,3.1320282687374856e-06,2.913514617830515e-05,1.402438998222351,-0.00927734375,0.0126953125,0.07147873084638842,0.0011116088908366493,0.12541740690886313,0.000833987158144226,0.8560605472504271,0.8562972413732045
1624633820.9208121,-0.002740131263729344,-3.0858100818188613e-06,5.89,4.32,3.1320282687374856e-06,2.913514617830515e-05,1.402438998222351,-0.00927734375,0.0126953125,0.07147873084638842,0.0011116088908366493,0.12541740690886313,0.000833987158144226,0.8560605472504271,0.8562972413732045
1624633820.934812,-0.007299909418793901,-3.678013801364954e-06,5.89,4.32,3.1320282687374856e-06,2.913514617830515e-05,1.402438998222351,-0.01416015625,0.013671875,0.06503271161849834,0.0010933690624410854,0.12541740690886313,0.000833987158144226,0.8560119082877696,0.8562972413732045
1624633820.934812,-0.007299909418793901,-3.678013801364954e-06,5.89,4.32,3.1320282687374856e-06,2.913514617830515e-05,1.402438998222351,-0.01416015625,0.013671875,0.06503271161849834,0.0010933690624410854,0.12541740690886313,0.000833987158144226,0.8560119082877696,0.8562972413732045
1624633820.934812,-0.007299909418793901,-3.678013801364954e-06,5.89,4.32,3.1320282687374856e-06,2.913514617830515e-05,1.402438998222351,-0.01416015625,0.013671875,0.06503271161849834,0.0010933690624410854,0.11668217524617412,0.0009105723458714965,0.8560119082877696,0.8562670601131165
1624633820.934812,-0.007299909418793901,-3.678013801364954e-06,5.89,4.32,3.1320282687374856e-06,2.913514617830515e-05,1.402438998222351,-0.01416015625,0.013671875,0.06503271161849834,0.0010933690624410854,0.11668217524617412,0.0009105723458714965,0.8560119082877696,0.8562670601131165
1624633820.934812,-0.007299909418793901,-3.678013801364954e-06,5.89,4.32,3.1320282687374856e-06,2.913514617830515e-05,1.402438998222351,-0.01416015625,0.013671875,0.06503271161849834,0.0010933690624410854,0.11668217524617412,0.0009105723458714965,0.8560119082877696,0.8562670601131165
1624633821.004812,-0.012167975138461568,-4.280050368920942e-06,5.89,4.32,3.1320282687374856e-06,2.913514617830515e-05,1.402438998222351,-0.01416015625,0.013671875,0.05582856664137378,0.0008289951491962605,0.11668217524617412,0.0009105723458714965,0.856013836132243,0.8562670601131165
1624633821.004812,-0.012167975138461568,-4.280050368920942e-06,5.89,4.32,3.1320282687374856e-06,2.913514617830515e-05,1.402438998222351,-0.01416015625,0.013671875,0.05582856664137378,0.0008289951491962605,0.11668217524617412,0.0009105723458714965,0.856013836132243,0.8562670601131165
1624633821.004812,-0.012167975138461568,-4.280050368920942e-06,5.89,4.32,3.1320282687374856e-06,2.913514617830515e-05,1.402438998222351,-0.01416015625,0.013671875,0.05582856664137378,0.0008289951491962605,0.10689318803079745,0.0008669504220475572,0.856013836132243,0.8562882015816295
1624633821.004812,-0.012167975138461568,-4.280050368920942e-06,5.89,4.32,3.1320282687374856e-06,2.913514617830515e-05,1.402438998222351,-0.01416015625,0.013671875,0.05582856664137378,0.0008289951491962605,0.10689318803079745,0.0008669504220475572,0.856013836132243,0.8562882015816295
1624633821.004812,-0.012167975138461568,-4.280050368920942e-06,5.91,4.32,3.1320282687374856e-06,2.913514617830515e-05,1.402438998222351,-0.01416015625,0.013671875,0.05582856664137378,0.0008289951491962605,0.10689318803079745,0.0008669504220475572,0.856013836132243,0.8562882015816295
1624633821.055386,-0.016862799166626377,-4.8518185592691235e-06,5.91,4.32,3.210328713976196e-06,2.9863524105167016e-05,1.3414634466171265,-0.0244140625,0.0087890625,0.04885225871861247,0.0007848658162210676,0.10689318803079745,0.0008669504220475572,0.8560020600672188,0.8562882015816295
1624633821.055386,-0.016862799166626377,-4.8518185592691235e-06,5.91,4.32,3.210328713976196e-06,2.9863524105167016e-05,1.3414634466171265,-0.0244140625,0.0087890625,0.04885225871861247,0.0007848658162210676,0.10689318803079745,0.0008669504220475572,0.8560020600672188,0.8562882015816295
1624633821.055386,-0.016862799166626377,-4.8518185592691235e-06,5.91,4.32,3.210328713976196e-06,2.9863524105167016e-05,1.3414634466171265,-0.0244140625,0.0087890625,0.04885225871861247,0.0007848658162210676,0.09733317240748376,0.000827689297769429,0.8560020600672188,0.8562824016129935
1624633821.055386,-0.016862799166626377,-4.8518185592691235e-06,5.91,4.32,3.210328713976196e-06,2.9863524105167016e-05,1.3414634466171265,-0.0244140625,0.0087890625,0.04885225871861247,0.0007848658162210676,0.09733317240748376,0.000827689297769429,0.8560020600672188,0.8562824016129935
1624633821.055386,-0.016862799166626377,-4.8518185592691235e-06,5.91,4.32,3.210328713976196e-06,2.9863524105167016e-05,1.3414634466171265,-0.0244140625,0.0087890625,0.04885225871861247,0.0007848658162210676,0.09733317240748376,0.000827689297769429,0.8560020600672188,0.8562824016129935
1624633821.115386,-0.021390028636803768,-5.396349436825253e-06,5.91,4.32,3.1320282687374856e-06,2.913514617830515e-05,1.3414634466171265,-0.0244140625,0.0087890625,0.04235456747762938,0.000994935092068873,0.09733317240748376,0.000827689297769429,0.8560072767050434,0.8562824016129935
