time,la_x,la_y,uwb_x,uwb_y,vel_linear_x,vel_angular_z,mpu_ang_vel_z,mpu_linear_acc_x,mpu_linear_acc_y,odom_linear_x,odom_angular_z,cmd_linear_x,cmd_linear_y,odom_yaw,cmd_angular_z,var_x,var_y,var_xvel,var_yvel,vel_linear_y,odom_linear_y
1626109261.436471,1.3277909230524839e-10,3.36224786786947e-07,0.0,0.0,,,,,,-1.2914821339192863e-10,0.0017850956311492646,,,-1.9594942006136475,,0.002811568917532098,0.002811568917530642,0.06331023993086166,0.06331023993156709,,1.4868362748527288e-06
1626109261.496471,1.2886248827716674e-10,2.978613242489622e-07,0.0,0.0,2.488219706719974e-06,-2.3146230887505226e-05,1.3414634466171265,0.0048828125,0.0078125,-1.2231082499894523e-10,0.0016716562847596244,,,-1.9594985759438648,,0.0028115460717459944,0.0028115460717447367,0.06331486418204386,0.06331486418265013,0.0,1.4026528400228324e-06
1626109261.498471,1.2218909740094389e-10,2.9786132423887815e-07,5.72,4.87,2.458059498167131e-06,-2.2865669961902313e-05,1.3414634466171265,-0.0087890625,0.00439453125,-1.2244939531557739e-10,0.0017767483347250375,,,-1.9594916832785705,,0.002924277403253201,0.002924277403251847,0.0634598490782424,0.0634598490788485,0.0,1.4032485904776891e-06
1626109261.5824711,1.1541345757774315e-10,2.616603602710122e-07,5.72,4.87,2.473047516104998e-06,-2.30050936806947e-05,1.3414634466171265,-0.0087890625,0.00439453125,-1.1372615093402255e-10,0.001958920988381148,,,-1.9594400069936528,,0.004317467970799365,0.004317467970796974,0.06522429448082308,0.0652242944813396,0.0,1.328887812877736e-06
1626109261.616471,1.1331894184652955e-10,2.2752816701241639e-07,5.75,4.86,2.488219706719974e-06,-2.3146230887505226e-05,1.3414634466171265,-0.0087890625,0.00439453125,-1.1105491334412796e-10,0.0018876632761497556,,,-1.9594906860050856,,0.0028115080409849974,0.0028115080409840667,0.06330761601013452,0.0633076160105771,0.0,1.2447302034404098e-06
1626109261.686471,1.0497971515090242e-10,1.9538014809649127e-07,5.75,4.86,2.488219706719974e-06,-2.3146230887505226e-05,1.3414634466171265,-0.009765625,0.0078125,-1.0536447453117166e-10,0.002141712493234722,,,-1.959461956008371,,0.0033803655690501384,0.003380365569049021,0.06403842055193101,0.06403842055230564,0.0,1.1728750321524182e-06
1626109261.736471,1.049020765649158e-10,1.6512907439071965e-07,5.77,4.87,2.488219706719974e-06,-2.3146230887505226e-05,1.3414634466171265,-0.009765625,0.0078125,-1.0145439257224926e-10,0.0020289627765120574,,,-1.9594839572856748,,0.00281152936422685,0.0028115293642261723,0.06330740843075919,0.06330740843107688,0.0,1.1002718576043652e-06
1626109261.796471,1.011494233448557e-10,1.3669181649495194e-07,5.77,4.87,2.458059498167131e-06,-2.2865669961902313e-05,1.3414634466171265,-0.00927734375,0.0068359375,-9.630491905873312e-11,0.0019000808650865453,,,-1.9594880899042382,,0.002811467735824412,0.0028114677358238374,0.06331570257939322,0.06331570257966049,0.0,1.0328530412307524e-06
1626109261.894471,9.162392531683858e-11,1.0998668694412104e-07,5.74,4.87,2.473047516104998e-06,-2.30050936806947e-05,1.2804877758026123,-0.01123046875,0.00732421875,-8.863957009949747e-11,0.0020801205938000256,,,-1.9594023068601907,,0.005042443718017386,0.005042443718015993,0.06611986633020088,0.06611986633041989,0.0,9.7265340724944e-07
1626109261.916471,8.827361298210955e-11,8.493545675621958e-08,5.73,4.88,2.488219706719974e-06,-2.3146230887505226e-05,1.2804877758026123,-0.01123046875,0.00732421875,-8.775451517246516e-11,0.002028990115703327,,,-1.9594827779020574,,0.002811400891019703,0.002811400891019295,0.06331598875790262,0.06331598875808878,0.0,9.067961344850668e-07
1626109261.976471,8.751618924938756e-11,6.146725756390024e-08,5.73,4.88,2.473047516104998e-06,-2.30050936806947e-05,1.2804877758026123,-0.0087890625,0.00244140625,-8.322902884741228e-11,0.0019007142815008504,,,-1.9594875511835885,,0.0028115135457269886,0.0028115135457266478,0.06332011247754583,0.06332011247769986,0.0,8.480471820499509e-07
1626109262.0364711,8.138477862893864e-11,3.951021388880012e-08,5.75,4.89,2.473047516104998e-06,-2.30050936806947e-05,1.3414634466171265,-0.015625,0.00341796875,-7.933856008887622e-11,0.0019006400885497776,,,-1.9594874939413498,,0.0028115597396382794,0.0028115597396379966,0.06330519561912545,0.06330519561925207,0.0,7.918722283876245e-07
1626109262.096471,7.545322987100581e-11,1.899640917238072e-08,5.75,4.89,2.473047516104998e-06,-2.30050936806947e-05,1.3414634466171265,-0.015625,0.00341796875,-7.532903371743966e-11,0.0017819251487823098,,,-1.9594922204032226,,0.0028115994986970833,0.0028115994986968496,0.06328921453878329,0.06328921453888672,0.0,7.383071264798639e-07
1626109262.186471,7.068542884926243e-11,-1.4078605759369612e-10,5.72,4.89,2.488219706719974e-06,-2.3146230887505226e-05,1.402438998222351,-0.00537109375,0.00927734375,-6.924413376049896e-11,0.0019456160688842174,,,-1.9594320435428845,,0.0045572136976568265,0.004557213697656373,0.06549133447952955,0.06549133447961093,0.0,6.873817364321575e-07
1626109262.216471,6.92052080271045e-11,-1.7967933095848135e-08,5.7,4.89,2.473047516104998e-06,-2.30050936806947e-05,1.4634146690368652,-0.01220703125,0.00439453125,-6.733101429958182e-11,0.0018823265482852622,,,-1.9594905889830192,,0.0028115195607197625,0.0028115195607196046,0.06327921593170303,0.06327921593177074,0.0,6.387746507078532e-07
1626109262.290471,6.306399189058926e-11,-3.4546408722147404e-08,5.7,4.89,2.473047516104998e-06,-2.30050936806947e-05,1.4634146690368652,-0.01220703125,0.00439453125,-6.269924027185743e-11,0.0019944378961661248,,,-1.9594594706964368,,0.0036114847162849783,0.003611484716284779,0.06430461796346087,0.06430461796351426,0.0,5.921202223664789e-07
1626109262.336471,6.272152725092252e-11,-4.9936816636946985e-08,5.74,4.89,2.473047516104998e-06,-2.30050936806947e-05,1.4634146690368652,-0.01220703125,0.00439453125,-5.980680561369298e-11,0.0018971942358382186,,,-1.959489088473531,,0.002811511831687742,0.0028115118316876394,0.06327974744908277,0.06327974744912612,0.0,5.486164693249816e-07
1626109262.396471,5.99251526155757e-11,-6.419635758634111e-08,5.75,4.89,2.473047516104998e-06,-2.30050936806947e-05,1.3414634466171265,-0.01318359375,0.0068359375,-5.595415218800342e-11,0.0017765700253706462,,,-1.9594935829723714,,0.002811455507339091,0.002811455507339008,0.06328953760385048,0.06328953760388502,0.0,5.068530077926895e-07
1626109262.478471,5.23469344590969e-11,-7.738123028494584e-08,5.72,4.87,2.473047516104998e-06,-2.30050936806947e-05,1.402438998222351,-0.005859375,0.00390625,-5.1223480319863884e-11,0.0017882480229890964,,,-1.959452744686098,,0.004079767380631523,0.004079767380631394,0.06491151195431762,0.06491151195434447,0.0,4.6547645863723085e-07
1626109262.516471,5.1370895798093814e-11,-8.954511036531578e-08,5.72,4.87,2.473047516104998e-06,-2.30050936806947e-05,1.402438998222351,-0.0009765625,0.00830078125,-4.8908000549639323e-11,0.0017158700044148946,,,-1.959495805539979,,0.0028114236357967824,0.002811423635796729,0.06329569718566927,0.06329569718569142,0.0,4.293972048606273e-07
1626109262.5824711,4.5292145644996994e-11,-1.0073717255528489e-07,5.74,4.88,2.473047516104998e-06,-2.30050936806947e-05,1.402438998222351,-0.0009765625,0.00830078125,-4.5571109372286934e-11,0.0019765199335337364,,,-1.9594780508991985,,0.0031512058873552663,0.0031512058873552143,0.06373841054279038,0.06373841054280836,0.0,3.9298455847830673e-07
1626109262.636471,4.575068035679796e-11,-1.1100666294898367e-07,5.74,4.88,2.473047516104998e-06,-2.30050936806947e-05,1.2804877758026123,0.00146484375,0.00537109375,-4.26581151586897e-11,0.0018645223741725037,,,-1.959491329232125,,0.002811449964868771,0.002811449964868736,0.06330626735677095,0.06330626735678607,0.0,3.596066267571608e-07
1626109262.696471,4.2878407191307046e-11,-1.2040092600565007e-07,5.76,4.88,2.473047516104998e-06,-2.30050936806947e-05,1.2804877758026123,0.00146484375,0.00537109375,-3.9534498846029335e-11,0.0017459814436789247,,,-1.9594953653840395,,0.002811391358042566,0.0028113913580425365,0.06331774075247326,0.06331774075248643,0.0,3.274123273533573e-07
1626109262.790471,3.6610303227185237e-11,-1.289656420784147e-07,5.78,4.87,2.488219706719974e-06,-2.3146230887505226e-05,1.3414634466171265,-0.0078125,0.009765625,-3.567907975486138e-11,0.002010634287624273,,,-1.9594195879653826,,0.00479855010135608,0.004798550101356013,0.06582573047437383,0.0658257304743864,0.0,2.9253061208785196e-07
1626109262.816471,3.58338042856317e-11,-1.3674438055296029e-07,5.78,4.87,2.473047516104998e-06,-2.30050936806947e-05,1.402438998222351,0.00830078125,0.0068359375,-3.434959082760205e-11,0.0019531950025339804,,,-1.9594876408902075,,0.002811413567190801,0.002811413567190779,0.06331818728132019,0.06331818728133165,0.0,2.679753737360844e-07
1626109262.894471,3.180819781134367e-11,-1.437775522051163e-07,5.81,4.87,2.473047516104998e-06,-2.30050936806947e-05,1.402438998222351,0.00830078125,0.0068359375,-3.141011623323951e-11,0.001979636279933861,,,-1.9594509096208794,,0.0038447732597415743,0.003844773259741536,0.0646344206505019,0.06463442065051396,0.0,2.3804901555713297e-07
1626109262.936471,3.1555892688828554e-11,-1.5010530090278985e-07,5.81,4.87,2.473047516104998e-06,-2.30050936806947e-05,1.2804877758026123,-0.00634765625,0.00048828125,-2.971280662864316e-11,0.001890962230862109,,,-1.9594887878426774,,0.0028115665171533485,0.0028115665171533286,0.06330916722482016,0.06330916722483211,0.0,2.1476380388151717e-07
1626109262.996471,2.8653768642990393e-11,-1.5576583701680602e-07,5.82,4.89,2.488219706719974e-06,-2.3146230887505226e-05,1.2804877758026123,-0.00634765625,0.00048828125,-2.768028973841493e-11,0.0018766097051481235,,,-1.9594893007872503,,0.002811608780121806,0.0028116087801217846,0.0632905062305362,0.06329050623054891,0.0,1.9031874566955374e-07
1626109263.0824711,2.551149995892783e-11,-1.6079589175711408e-07,5.76,4.88,2.473047516104998e-06,-2.30050936806947e-05,1.402438998222351,-0.009765625,0.00390625,-2.4964836463239306e-11,0.0018840868258659252,,,-1.9594410451653184,,0.00431767342603166,0.004317673426031606,0.06519580694267504,0.06519580694269009,0.0,1.6310712131531473e-07
1626109263.116471,2.51457391709873e-11,-1.6523133012917696e-07,5.76,4.88,2.473047516104998e-06,-2.30050936806947e-05,1.2804877758026123,-0.0068359375,0.009765625,-2.363832363955345e-11,0.0018151140136830396,,,-1.9594922263628012,,0.0028115501697139568,0.0028115501697139333,0.06327960311923572,0.06327960311925065,0.0,1.455482375478342e-07
1626109263.186492,2.1616050810940443e-11,-1.6910684414766148e-07,5.73,4.87,2.458059498167131e-06,-2.2865669961902313e-05,1.2804877758026123,-0.0068359375,0.009765625,-2.152502487507157e-11,0.0018852960540779598,,,-1.9594722334381054,,0.003380595367437643,0.003380595367437606,0.06401314181260458,0.06401314181262144,0.0,1.2339913254445037e-07
1626109263.236492,2.1743785044501407e-11,-1.7245317051735928e-07,5.73,4.87,2.488219706719974e-06,-2.3146230887505226e-05,1.3414634466171265,-0.01220703125,0.00732421875,-1.986675222471747e-11,0.0017857623809049623,,,-1.959493785894295,,0.0028115464783408824,0.0028115464783408555,0.06328485037604126,0.06328485037605894,0.0,1.0583524330733909e-07
1626109263.296492,2.0106254686488695e-11,-1.7530205209934153e-07,5.76,4.88,2.473047516104998e-06,-2.30050936806947e-05,1.3414634466171265,-0.01220703125,0.00732421875,-1.803624738817723e-11,0.0016721009650920464,,,-1.959498384419628,,0.0028114346107949192,0.00281143461079489,0.0632961199375496,0.06329611993756873,0.0,8.774439024133117e-08
1626109263.394492,0.3811586696605728,-1.7740771318333235e-07,5.72,4.89,2.473047516104998e-06,-2.30050936806947e-05,1.2804877758026123,0.0,0.01171875,0.038035642208134525,0.001903498422779054,0.5,0.0,-1.9594181876598071,0.0,0.005042316802041521,0.005042313992797808,0.06610331721333897,0.06610331721336228,0.0,6.482224691453631e-08
1626109263.416492,0.3690187750855441,-1.5418704368711043e-07,5.72,4.89,0.031288355588912964,-0.18036909401416779,6.341463565826416,-0.005859375,-0.060546875,0.044660394236255556,0.0018566936474282852,0.5,0.0,-1.9594913850534892,0.0,0.002811363361944973,0.0028113621561311848,0.063301785416745,0.06330178885929652,0.0,1.2387218487067561e-07
1626109263.478492,0.34849410156435806,5.376897261046356e-07,5.7,4.89,0.09508753567934036,-0.03289242088794708,6.341463565826416,-0.005859375,-0.060546875,0.06507939382031316,-0.006496070573555906,0.5,0.0,-1.96291566597048,0.0,0.002924214111695328,0.002924209357346534,0.06345317160951904,0.0634531967830643,0.0,2.02389212152776e-06
1626109263.536492,0.34761827853695787,-5.365033866525933e-06,5.7,4.89,0.19645659625530243,0.06662429869174957,-2.317073106765747,-0.0849609375,-0.22021484375,0.08439462213532868,-0.0063507712434631765,0.5,0.0,-1.9686221380091515,0.0,0.002811420003783543,0.002811411782043506,0.0633172491811408,0.06331732691056917,0.0,-1.3871694469524022e-05
1626109263.596492,0.3210436687128798,-1.635198312847197e-05,5.68,4.89,0.3093082010746002,0.032702311873435974,-2.317073106765747,-0.0849609375,-0.22021484375,0.10633709157343452,-0.004423059376382715,0.5,0.0,-1.9693982901307692,0.0,0.0028114021983314504,0.002811390174303364,0.06331033113399209,0.06331049994071851,0.0,-4.4272207391468506e-05
1626109263.686492,-0.1072498652780835,-2.0166778883476883e-05,5.67,4.88,0.41050225496292114,0.04903431236743927,2.195122003555298,0.07763671875,0.048828125,0.10403237062110027,0.013958451964012719,0.5,0.0,-1.9674254588345093,0.0,0.004557169716458631,0.004557113942701601,0.06551477274158801,0.06551510633844725,0.0,-5.676146330272091e-05
1626109263.716492,-0.09909644626893443,-1.3087888886107039e-05,5.67,4.88,0.506649911403656,0.016738999634981155,0.24390244483947754,-0.33935546875,0.015625,0.11436832765754787,0.013585101841100178,0.5,0.0,-1.965994334955672,0.0,0.002811524777280607,0.0028115070232514906,0.06330175049642078,0.06330225622029749,0.0,-3.8442453719424033e-05
1626109263.790492,-0.12715931620200321,1.6906278555969375e-06,5.65,4.84,0.5299649238586426,0.049894604831933975,0.24390244483947754,-0.33935546875,0.015625,0.12537906513548927,0.02284300499699588,0.5,0.0,-1.96403937756005,0.0,0.0036115846874923553,0.0036115485510747913,0.0643252852882105,0.06432599986312271,0.0,1.3402158169650417e-06
1626109263.836492,-0.11679279679748628,9.92603203834247e-06,5.65,4.84,0.534887969493866,0.016364334151148796,-0.3658536672592163,-0.0166015625,-0.40185546875,0.14300063666187232,0.021778869510764683,0.5,0.0,-1.963317247257943,0.0,0.002811578889832754,0.0028115542271029683,0.06329812425691006,0.06329905166966922,0.0,2.4765432525281525e-05
1626109263.896492,-0.1337708280492089,2.0678396285534065e-05,5.64,4.82,0.5182399749755859,-2.2721875211573206e-05,-0.3658536672592163,-0.0166015625,-0.40185546875,0.15951939397148415,0.020478942350719294,0.5,0.0,-1.9619784143856243,0.0,0.0028115322700757693,0.0028115005924628927,0.0633056855917212,0.0633068767788951,0.0,5.567229127737251e-05
1626109263.978492,-0.17474557813323469,2.598406646906213e-05,5.66,4.77,0.5014621019363403,0.03267336264252663,0.3658536672592163,0.0556640625,0.12060546875,0.17090116350683704,0.02825056405077321,0.5,0.0,-1.9604874089873705,0.0,0.0040799549704806535,0.004079861113572729,0.06492558285118594,0.06492711090010951,0.0,7.32605233818854e-05
1626109264.016492,-0.16220889803864375,2.5074652058600563e-05,5.66,4.77,0.49875909090042114,0.016706110909581184,2.5,-0.521484375,0.13037109375,0.1880930185779957,0.027151167059847568,0.5,0.0,-1.9600871832305615,0.0,0.0028115115439916166,0.0028114658862868065,0.06330788776187014,0.06330974635802708,0.0,7.280247214180364e-05
1626109264.082492,-0.1987883765901206,2.72351122411097e-05,5.52,5.0,0.49787911772727966,0.0005486412555910647,2.5,-0.521484375,0.13037109375,0.19759563720390902,0.017721067841486887,0.5,0.0,-1.958877502627232,0.0,0.0031513268752688867,0.0031512562617301925,0.06374891399587597,0.06375122192149613,0.0,8.101401799208965e-05
1626109264.136492,-0.18987397307455517,2.6649110912887976e-05,5.52,5.0,0.49486497044563293,-2.2865669961902313e-05,-1.2804877758026123,0.15771484375,-0.03076171875,0.20793630751880662,0.01672238259360568,0.5,0.0,-1.9588772287117713,0.0,0.0028115516590330614,0.0028114881007129393,0.06331529159025526,0.06331809032668287,0.0,8.167740049586446e-05
1626109264.196492,-0.20047717368212462,2.159172589899813e-05,5.56,4.92,0.5057616233825684,-0.00025357160484418273,-1.2804877758026123,0.15771484375,-0.03076171875,0.215737894792654,0.01566238432286642,0.5,0.0,-1.9588610967641105,0.0,0.0028114966948652995,0.0028114272618104275,0.06332545519325264,0.0633288057906376,0.0,7.005918222493206e-05
1626109264.290492,-0.22268832415915726,1.7086035316168137e-05,5.58,4.84,0.493049681186676,-2.3146230887505226e-05,2.2560975551605225,-0.7353515625,0.1884765625,0.21511688619452835,0.005409014746687368,0.5,0.0,-1.9588346310392875,0.0,0.004798906617681141,0.004798651601970314,0.06583222819545419,0.06583624706626291,0.0,5.964313665158066e-05
1626109264.316492,-0.2080030011899608,1.2980095089879477e-05,5.58,4.84,0.5088242292404175,-2.3146230887505226e-05,3.353658676147461,-0.15478515625,0.36962890625,0.22891666904598024,0.0052468249533167335,0.5,0.0,-1.9591943184399903,0.0,0.00281151834636696,0.0028114445353190835,0.06332374583690784,0.06332822532711102,0.0,4.900559203566288e-05
1626109264.394492,-0.23423541590613436,8.291883970753345e-06,5.58,4.86,0.49873000383377075,-9.576487173035275e-06,3.353658676147461,-0.15478515625,0.36962890625,0.23001920400100886,0.00869456821354753,0.5,0.0,-1.9590198043681164,0.0,0.0038450000649545937,0.003844831473713174,0.06463906721351725,0.06464421181161899,0.0,3.727208438486702e-05
1626109264.436492,-0.2231550372770753,4.332984535228935e-06,5.58,4.86,0.4391224682331085,-9.634880370867904e-06,-0.7317073345184326,-0.04296875,0.11474609375,0.2390692148773746,0.008305142803960296,0.5,0.0,-1.9591854930994612,0.0,0.0028116864224544385,0.0028115962284819725,0.0633130940011921,0.06331878407313936,0.0,2.6827090599690354e-05
1626109264.496492,-0.2228281609361733,4.488590597609472e-08,5.58,4.77,0.3510432839393616,0.00025285838637501,-0.7317073345184326,-0.04296875,0.11474609375,0.2418181014438807,0.015118737999367226,0.5,0.0,-1.958946424598724,0.0,0.002811726691364853,0.0028116365984405902,0.06329377959869502,0.06330006208520274,0.0,1.5701679755521376e-05
1626109264.582492,-0.24025016836485594,-2.792192975252106e-06,5.49,4.88,0.14807076752185822,0.00027065587346442044,1.8292683362960815,-0.087890625,0.1376953125,0.2340036589940693,0.009913226378191276,0.5,0.0,-1.9583920189269035,0.0,0.004317988870620866,0.0043177407809140925,0.06519847045533156,0.0652055031174061,0.0,7.825837048946929e-06
1626109264.616492,-0.23115400234281233,-3.819864651791813e-06,5.49,4.88,0.14807076752185822,0.00027065587346442044,1.2195122241973877,0.00048828125,0.2236328125,0.2338169166053027,0.009571437755492835,0.5,0.0,-1.9581754848491422,0.0,0.002811670455734946,0.002811575865114137,0.06328183855192258,0.06328932302999961,0.0,4.953629684019026e-06
1626109264.686492,-0.22147585972493097,-4.6413886728492205e-06,5.53,4.77,0.06277592480182648,-2.113639857270755e-05,1.2195122241973877,0.00048828125,0.2236328125,0.21926110352794795,0.005109592507456511,0.5,0.0,-1.958232884694405,0.0,0.0033804999220511693,0.003380366313996857,0.06401464211168405,0.06402271699721625,0.0,2.392415961799671e-06
1626109264.736492,-0.2206930713439305,-4.297183704126675e-06,5.53,4.77,0.0017263790359720588,0.01605933904647827,2.0731706619262695,0.01416015625,0.0556640625,0.20440005114341625,0.004829292309360878,0.5,0.0,-1.9585136078866867,0.0,0.002811602392058284,0.0028115130718614424,0.06328626328332865,0.06329471818333499,0.0,3.1765597107028145e-06
1626109264.796492,-0.20751954527365138,-3.3504443378747084e-06,5.62,4.69,6.061291628611798e-07,5.638410584651865e-06,2.0731706619262695,0.01416015625,0.0556640625,0.18365634137684428,0.004515484033472627,0.5,0.0,-1.9586300121802014,0.0,0.0028115209871542577,0.0028114422488862848,0.06329728717870269,0.06330604188077017,0.0,5.592033710938824e-06
1626109264.856492,0.24907958439875655,-2.8561770288037732e-06,5.65,4.62,0.0018165016081184149,0.016897687688469887,1.2804877758026123,-0.013671875,0.02392578125,0.1879857886262974,0.0023036741958620574,0.5,0.0,-1.958766954931963,0.0,0.0028113968731388363,0.0028113320972892467,0.06331249293419272,0.06332137494491151,0.0,6.733979754199087e-06
1626109264.916492,0.23758667911404124,-2.225779958389999e-06,5.65,4.62,0.0018165016081184149,0.016897687688469887,1.2804877758026123,-0.013671875,0.02392578125,0.1907077997856368,0.002196040561664985,0.5,0.0,-1.9588006439906425,0.0,0.002811442717386001,0.0028113770187653065,0.0633025280262703,0.06331141347039553,0.0,8.382292801419224e-06
1626109264.978492,0.24569176943498763,-2.2217119143052923e-06,5.7,4.56,0.04744165763258934,-0.03298032283782959,1.1585365533828735,-0.02880859375,-0.14013671875,0.1933766946721092,0.002679346852758448,0.5,0.0,-1.9586055968294345,0.0,0.002924308905622911,0.0029242268718505304,0.06345375696832073,0.06346266272473994,0.0,8.356388644472703e-06
1626109265.036492,0.24104723468649528,-1.2685458450725564e-06,5.7,4.56,0.12834754586219788,-0.016976717859506607,1.1585365533828735,-0.02880859375,-0.14013671875,0.19604527417949927,0.0025046234080812017,0.5,0.0,-1.9589059014681067,0.0,0.002811505882455146,0.0028114276781559663,0.06331770105068178,0.0633266231185097,0.0,1.091334853382728e-05
1626109265.096492,0.23088137782242674,-5.558828214585947e-07,5.69,4.54,0.23912706971168518,-2.0154250250925543e-06,1.1585365533828735,-0.02880859375,-0.14013671875,0.20142903068532275,0.0030187108123418617,0.5,0.0,-1.9592032313848373,0.0,0.002811479371038301,0.0028114056666254696,0.06331062857313993,0.06331955439141358,0.0,1.2908021611922456e-05
1626109265.156492,-0.20276101387804274,-8.734047826695054e-07,5.69,4.51,0.4426599442958832,0.0335000641644001,2.1341464519500732,0.1728515625,-0.48291015625,0.18572100450446885,0.002831150328552253,0.5,0.0,-1.9591600352863052,0.0,0.002811568981280383,0.0028114848270021304,0.06331744833134464,0.06332642495117806,0.0,1.2056689803839133e-05
1626109265.216492,-0.17896675253750294,-4.1621507195383413e-07,5.69,4.51,0.5169922709465027,-0.03318656235933304,1.585365891456604,-0.4072265625,0.208984375,0.17796916625170883,0.008231158549071745,0.5,0.0,-1.958566881285306,0.0,0.0028115842528758407,0.002811517756417874,0.06330187745504087,0.0633108257705658,0.0,1.3482738238003888e-05
1626109265.290492,-0.1775467458643058,2.799865188885687e-06,5.69,4.47,0.5169922709465027,-0.03318656235933304,1.585365891456604,-0.4072265625,0.208984375,0.17506105992389365,0.006406144623333536,0.5,0.0,-1.9575754566153571,0.0,0.003611665751924295,0.0036115626977169927,0.06432537521511274,0.06433431746551453,0.0,2.2151644664857272e-05
1626109265.336492,-0.16893363904834532,5.983559966502988e-06,5.69,4.47,0.531440258026123,-0.016913220286369324,-1.402438998222351,0.0302734375,-0.45849609375,0.1836994215523322,0.006085558502999305,0.0,0.0,-1.9578379754373607,0.0,0.0028116238478603506,0.002811562008469031,0.06329819299833943,0.06330693153332673,0.0,3.1191586814212246e-05
1626109265.396492,-0.1762613433691652,1.3834907775832003e-06,5.7,4.43,0.5117751955986023,-0.01663314737379551,-1.402438998222351,0.0302734375,-0.45849609375,0.19290397915497873,0.005659246888767893,0.0,0.0,-1.958488196157765,0.0,0.002811572730001286,0.0028115075002185276,0.06330574598681357,0.0633143570590862,0.0,1.9281081788513103e-05
1626109265.478492,-0.20295417520379513,-3.4511306046286e-06,5.73,4.38,0.31933969259262085,0.01633366011083126,1.0365853309631348,0.01806640625,0.294921875,0.19848916819447426,0.004478846295908673,0.0,0.0,-1.9585479624635749,0.0,0.004080028877541155,0.0040798739033628285,0.06492565202662542,0.06493426475604998,0.0,6.015135804449093e-06
1626109265.516492,-0.19157221492230436,-7.389179853333312e-06,5.73,4.38,0.21128316223621368,0.032675087451934814,1.0365853309631348,0.01806640625,0.294921875,0.20979492534123223,0.004303843039203504,0.0,0.0,-1.9585017486571026,0.0,0.0028115442105185314,0.0028114715946967166,0.06330795639114563,0.06331637939442071,0.0,-4.950020811734164e-06
1626109265.582492,-0.21125746882939905,-8.99958242751181e-06,5.77,4.34,0.21128316223621368,0.032675087451934814,1.0365853309631348,0.01806640625,0.294921875,0.2099899151414702,0.004195285242319675,0.0,0.0,-1.9582326502768705,0.0,0.003151362381099637,0.0031512625237261655,0.06374900237125755,0.06375745870622498,0.0,-9.881912797676187e-06
1626109265.636492,-0.20714942368259442,-1.0366189708081865e-05,5.77,4.34,0.11978187412023544,-0.016351206228137016,0.6707317233085632,0.04248046875,0.18603515625,0.20637944186602875,0.003979447273781767,0.0,0.0,-1.957786255172626,0.0,0.0028115746671662344,0.002811492245806539,0.06331539659828231,0.0633238812220769,0.0,-1.412025491191391e-05
1626109265.696792,-0.2058592556659057,-1.068878878225091e-05,5.79,4.29,0.03135068342089653,0.0005466278526000679,0.6707317233085632,0.04248046875,0.18603515625,0.19534890210326342,0.0037266496475443106,0.0,0.0,-1.9577706936435013,0.0,0.002815195230258959,0.0028151157320848853,0.06333002124934596,0.06333858049382637,0.0,-1.5589186796497584e-05
1626109265.7567918,-0.19686438576474213,-1.0211942968870076e-05,5.81,4.25,1.0513017514313105e-06,-9.77955187408952e-06,0.792682945728302,-0.00732421875,-0.01953125,0.17950928966427937,0.005308568350659473,0.0,0.0,-1.9576937916796866,0.0,0.0028122253582189664,0.002812153852319641,0.06333937582065804,0.0633479698438712,0.0,-1.4822369133196423e-05
1626109265.816792,-0.17639349791898154,-1.0523760016015387e-05,5.81,4.25,1.057751546795771e-06,-9.839549420576077e-06,0.792682945728302,-0.00732421875,-0.01953125,0.139165948388742,0.04764753638177115,0.0,0.0,-1.9556309162589987,1.0,0.003844946183760637,0.0038448520148156827,0.06463971721413497,0.06464816486612279,0.0,-1.2305465110459473e-05
1626109265.8947918,-0.1417168359978103,-8.478028297768784e-06,5.84,4.23,1.057751546795771e-06,-9.839549420576077e-06,1.2804877758026123,0.00341796875,0.01708984375,0.12404969094463651,0.08350994391791146,0.0,0.0,-1.9550194121245401,1.0,0.0028116391454696436,0.0028115943406823883,0.06331373972297566,0.06332185382467355,0.0,1.0490453537740153e-05
1626109265.936792,-0.14256719468331933,-4.6502853504362776e-08,5.84,4.23,0.007928594015538692,0.18117330968379974,1.2804877758026123,0.00341796875,0.01708984375,0.10797367200272356,0.12766488174298035,0.0,0.0,-1.9508258028343586,1.0,0.002811662828060057,0.0028116269974369046,0.06329444743575355,0.06330221328326308,0.0,3.283423459113576e-05
1626109265.9967918,-0.12203892865094342,8.216291370680583e-06,5.85,4.22,0.006644510198384523,0.4124886691570282,-21.829269409179688,-0.0361328125,0.0205078125,0.10797367200272356,0.12766488174298035,0.0,0.0,-1.9508258028343586,1.0,0.002811662828060057,0.0028116269974369046,0.06329444743575355,0.06330221328326308,0.0,3.283423459113576e-05
1626109266.0827918,-0.09370551488138837,1.54642608964013e-07,5.85,4.22,0.005509098991751671,0.8297983407974243,-44.63414764404297,0.0419921875,-0.0029296875,0.08093035948298735,0.21356803042269126,0.0,0.0,-1.910093412469656,1.0,0.0028115723883889374,0.0028115467928251873,0.06328296396876175,0.06328986080036612,0.0,-5.348609274163893e-05
1626109266.116792,-0.09392313433231349,-2.2236417061410284e-05,5.84,4.22,0.008390607312321663,0.9067038893699646,-44.63414764404297,0.0419921875,-0.0029296875,0.06900919813805684,0.20043728896588445,0.0,0.0,-1.87158028183121,1.0,0.0033802496597951856,0.00338021808455466,0.06401693293075846,0.06402337405467355,0.0,-0.00015824538824158184
1626109266.186792,-0.0697062600740264,-5.835923340115216e-05,5.84,4.22,0.008769501931965351,0.9399420022964478,-44.63414764404297,0.0419921875,-0.0029296875,0.05986154625129354,0.19342972638067052,0.0,0.0,-1.8277227422169855,1.0,0.0028114054467709114,0.002811385265242894,0.06329169135702478,0.06329760138693535,0.0,-0.0002938016282709956
1626109266.2367918,-0.07110218812403467,-0.00010493081430745061,5.78,4.24,0.008769501931965351,0.9399420022964478,-52.682926177978516,-0.0634765625,-0.00390625,0.05131870229453135,0.18602806643523645,0.0,0.0,-1.7766924226458363,1.0,0.0028112407198617384,0.00281122273637495,0.0633083957524305,0.06331380931108094,0.0,-0.0004271410346493827
1626109266.296792,-0.06168306852682848,-0.00014916540013188486,5.78,4.24,0.006559554487466812,0.9177687764167786,-54.085365295410156,0.04345703125,0.1103515625,0.05131870229453135,0.18602806643523645,0.0,0.0,-1.7766924226458363,1.0,0.0028112407198617384,0.00281122273637495,0.0633083957524305,0.06331380931108094,0.0,-0.0004271410346493827
1626109266.3747919,-0.04387548429724877,-0.00018755798874812768,5.72,4.26,0.010619430802762508,0.9290003180503845,-56.524391174316406,-0.05908203125,0.04296875,0.03740112547366589,0.17581541175493096,0.0,0.0,-1.6686317354255846,0.0,0.002811031539860667,0.002811017152530817,0.0633359944418431,0.06334045607488674,0.0,-0.0006608032507253417
1626109266.416792,-0.044508530869915325,-0.0002229822567432657,5.72,4.26,0.0048806979320943356,0.4282935857772827,-56.524391174316406,-0.05908203125,0.04296875,0.03169977829797208,0.17218955458785012,0.0,0.0,-1.6129215762615452,0.0,0.0029236934134727667,0.0029236794532631013,0.06350005688940605,0.06350408132880796,0.0,-0.0007585000350084566
1626109266.478792,-0.03176330788233815,-0.0002517154457451605,5.69,4.26,0.00215230043977499,-0.01651841774582863,-7.743902683258057,0.05078125,0.091796875,0.026987306388230648,0.16847405638633248,0.0,0.0,-1.5681671680705611,0.0,0.00281093581334314,0.0028109243258094565,0.06337633268110628,0.06337994280178032,0.0,-0.0008060424209803806
1626109266.5367918,-0.03275691858364944,-0.0002621893322976833,5.67,4.26,0.00215230043977499,-0.01651841774582863,-7.743902683258057,0.05078125,0.091796875,0.02304977987481286,0.16115158991296447,0.0,0.0,-1.5449150313760502,0.0,0.002810979107876861,0.0028109691670347063,0.06337944682109374,0.06338267415095018,0.0,-0.0007946030262037232
1626109266.596792,-0.026603429147209263,-0.0002512116310926462,5.67,4.26,2.708066233481077e-07,2.5191311578964815e-06,0.8536585569381714,0.001953125,0.0068359375,0.02304977987481286,0.16115158991296447,0.0,0.0,-1.5449150313760502,0.0,0.002810979107876861,0.0028109691670347063,0.06337944682109374,0.06338267415095018,0.0,-0.0007946030262037232
1626109266.686792,-0.01981910099493236,-0.00023055831791032506,5.65,4.28,6.827054477298589e-08,6.350747980832239e-07,1.4634146690368652,-0.01708984375,-0.00439453125,0.017142344709615568,0.12452471703806264,0.0,0.0,-1.532972377677169,0.0,0.002811457888381502,0.0028114502125242947,0.06337416880121706,0.06337672176880568,0.0,-0.0007064636555840352
1626109266.7167919,-0.019776584004043314,-0.00020720554266101952,5.64,4.27,6.785677442167071e-08,6.312258165053208e-07,1.4634146690368652,-0.01708984375,-0.00439453125,0.014652773461467612,0.04431009627918232,0.0,0.0,-1.5340609393327538,0.0,0.0036116866883632343,0.003611675895516765,0.06439429079064349,0.06439655964282653,0.0,-0.0006735618889862619
1626109266.790792,-0.01486099857324633,-0.00018834267493536246,5.64,4.27,6.868937418857968e-08,6.389709596987814e-07,1.402438998222351,-0.013671875,0.009765625,0.012889164944835918,0.04205237415475136,0.0,0.0,-1.5345678911342364,0.0,0.0028116667166826516,0.0028116607903536477,0.06336114705133598,0.06336314283877242,0.0,-0.0006286005876643297
1626109266.836792,-0.01505270488372488,-0.00016878143982596624,5.64,4.27,6.868937418857968e-08,6.389709596987814e-07,1.402438998222351,-0.013671875,0.009765625,0.011179851543482618,0.02125265970459813,0.0,0.0,-1.5353117266654908,0.0,0.0028117156455714975,0.002811710487542319,0.06333724840168425,0.06333900539330094,0.0,-0.0005927042848146872
1626109266.896792,-0.01274643434635826,-0.00015177779515821468,5.64,4.27,6.868937418857968e-08,6.389709596987814e-07,1.3414634466171265,-0.001953125,0.0009765625,0.011179851543482618,0.02125265970459813,0.0,0.0,-1.5353117266654908,0.0,0.0028117156455714975,0.002811710487542319,0.06333724840168425,0.06333900539330094,0.0,-0.0005927042848146872
1626109267.0167918,-0.00973780639450117,-0.00012111707620083084,5.64,4.27,6.785677442167071e-08,6.312258165053208e-07,1.1585365533828735,-0.00390625,0.009765625,0.03318616172185783,0.008122353335935462,0.5,0.0,-1.5359085653564917,0.0,0.0031513592919281738,0.003151354841927672,0.06375821770478264,0.06375940020755029,0.0,-0.0004961423015203598
1626109267.0827918,0.37525221823262916,-0.00010745259596200699,5.64,4.27,0.008590558543801308,-0.0659329816699028,1.1585365533828735,-0.00390625,0.009765625,0.05141548693555379,0.007619458692843363,0.5,0.0,-1.5367820057197676,0.0,0.002811540960725002,0.0028115351233083535,0.06332364970558985,0.06332468776826611,0.0,-0.00046559600122435653
1626109267.136792,0.37273898637513103,-9.443591496748208e-05,5.63,4.26,0.07114189118146896,-0.1822725385427475,4.329268455505371,-0.0234375,-0.10107421875,0.07145997874986304,0.006749751580496649,0.5,0.0,-1.5427306984813491,0.0,0.0028114600712018296,0.002811449898982453,0.06333361346905801,0.06333454688708862,0.0,-0.0004426378864350905
1626109267.196792,0.35832024551878855,-8.418231547126469e-05,5.63,4.27,0.14338481426239014,0.05014126002788544,4.329268455505371,-0.0234375,-0.10107421875,0.07145996729681733,-0.004004425319055855,0.5,0.0,-1.543068729819962,0.0,0.002811460070912531,0.0028114498989822655,0.06333361346905551,0.06333454688524738,0.0,-0.00044294850647257577
1626109267.2567918,0.3430450309067254,-8.308477623446412e-05,5.62,4.26,0.25295600295066833,0.03250117972493172,-1.4634146690368652,0.0126953125,-0.52490234375,0.1056488222592416,0.0009075747512592709,0.5,0.0,-1.5462742763967134,0.0,0.0028114724071093495,0.0028114499011638594,0.06333201081328149,0.06333289326839878,0.0,-0.00044949509737894205
1626109267.316792,-0.1019815455489615,-8.209024465031142e-05,5.62,4.26,0.36850354075431824,-2.365797081438359e-05,-1.8292683362960815,0.1689453125,-0.38037109375,0.10994700998644624,0.026921123547906538,0.5,0.0,-1.5447462424138168,0.0,0.002811589283629176,0.002811562513389035,0.06333114742074972,0.0633320918095382,0.0,-0.0004320416374522717
1626109267.376792,-0.09561678432435208,-7.230819283396055e-05,5.61,4.23,0.45717933773994446,0.03314901515841484,-1.8292683362960815,0.1689453125,-0.38037109375,0.12003624504286345,0.02530997215916715,0.5,0.0,-1.5431342989766133,0.0,0.002811500326100118,0.002811472243610097,0.06333942147165372,0.06334046858795157,0.0,-0.00039189962529553434
1626109267.436792,-0.10380907974021956,-5.3773565993175317e-05,5.61,4.23,0.510215699672699,0.0499088428914547,-0.792682945728302,-0.26318359375,0.2451171875,0.13442410935622404,0.031015942032220793,0.5,0.0,-1.541281120435651,0.0,0.0028114795061389346,0.002811450358515767,0.06332741353111743,0.0633285825748296,0.0,-0.0003473517080099481
1626109267.4967918,-0.1071045007070097,-3.394478810683527e-05,5.6,4.19,0.5356007814407349,0.016512107104063034,-0.792682945728302,-0.26318359375,0.2451171875,0.13442410935622404,0.031015942032220793,0.5,0.0,-1.541281120435651,0.0,0.0028114795061389346,0.002811450358515767,0.06332741353111743,0.0633285825748296,0.0,-0.0003473517080099481
1626109267.5827918,-0.15082042620314573,-3.681132438446976e-06,5.6,4.18,0.5270751118659973,0.016608908772468567,1.585365891456604,-0.30908203125,0.5634765625,0.16717742938037952,0.02008103495034458,0.5,0.0,-1.5379033163749005,0.0,0.002811617328085085,0.0028115698743839536,0.06331430722213728,0.06331586451137994,0.0,-0.00021397134713903353
1626109267.616792,-0.13762974604277592,2.0242967934572256e-05,5.6,4.18,0.5149457454681396,-0.01644870825111866,1.3414634466171265,0.00048828125,0.03076171875,0.17970357987821595,0.01707511470773533,0.5,0.0,-1.537028687017935,0.0,0.0033805049693246022,0.003380412720276044,0.06404423646982721,0.06404610703151516,0.0,-0.0001697379386384577
1626109267.686792,-0.18151876764689223,3.772472819217629e-05,5.58,4.15,0.5013191103935242,-0.033455993980169296,1.3414634466171265,0.00048828125,0.03076171875,0.19362944062426635,0.016196854202833365,0.5,0.0,-1.5367267903218156,0.0,0.0028116258862522147,0.0028115523428676754,0.06331260186504264,0.06331483554874015,0.0,-0.00013563718857199266
1626109267.7367918,-0.1712890808453273,5.1179260215774844e-05,5.58,4.15,0.4930853545665741,-0.015978528186678886,2.1341464519500732,-0.3310546875,-0.14404296875,0.20346790059462333,0.015167625556828069,0.5,0.0,-1.5367315170334876,0.0,0.0028115686517213886,0.0028114842538992744,0.06332054819707524,0.06332323332050463,0.0,-0.00011972379250904959
1626109267.796792,-0.1857382434048035,5.737295394004204e-05,5.56,4.11,0.49393177032470703,-1.0721772014221642e-05,2.1341464519500732,-0.3310546875,-0.14404296875,0.20346789980987876,0.014033922772337625,0.5,0.0,-1.53676686764296,0.0,0.002811568649749393,0.002811484253897089,0.06332054819707422,0.06332323323286189,0.0,-0.00011995451249223085
1626109267.8747919,-0.2119008178293871,5.7404438675765026e-05,5.54,4.05,0.5032151341438293,0.04958333447575569,-0.9756097793579102,-0.77392578125,0.42529296875,0.2194621479337546,0.02527015691216491,0.0,0.0,-1.5361300335095098,0.0,0.002811576028263229,0.0028114766297360864,0.06332309446402533,0.06332680068963772,0.0,-0.00012636939642698272
1626109267.916792,-0.2007034771553176,5.500904092571508e-05,5.54,4.05,0.4675928056240082,-0.016720952466130257,1.3414634466171265,0.0595703125,0.025390625,0.22487113078349094,0.022220564226795782,0.0,0.0,-1.535879645407523,0.0,0.0029243671382569317,0.002924247577400185,0.06347293859803788,0.06347722856767106,0.0,-0.0001250677354773328
1626109267.978792,-0.22532179608990585,5.538401371161798e-05,5.5,4.01,0.3980756402015686,-0.016624746844172478,1.3414634466171265,0.0595703125,0.025390625,0.22785119826337225,0.02088490633124121,0.0,0.0,-1.5356768987949605,0.0,0.0028115561016267714,0.002811440130872876,0.06333491958500544,0.06333980737959628,0.0,-0.00011985106773625751
1626109268.0367918,-0.21897922000574235,5.7017984178659386e-05,5.5,4.01,0.3018355667591095,0.0005550291389226913,5.853658676147461,0.173828125,0.185546875,0.2259286823911897,0.014688829447787027,0.0,0.0,-1.535202895671256,0.0,0.002811536073151626,0.0028114264692370014,0.0633257607996604,0.06333120896624811,0.0,-0.00011190218685102975
1626109268.096792,-0.21311152358041374,5.935389096179785e-05,5.49,3.96,0.19996574521064758,-0.0002833193866536021,5.853658676147461,0.173828125,0.185546875,0.2259286823911897,0.014688829447787027,0.0,0.0,-1.535202895671256,0.0,0.002811536073151626,0.0028114264692370014,0.0633257607996604,0.06333120896624811,0.0,-0.00011190218685102975
1626109268.186513,-0.2181288183277984,6.21127974853251e-05,5.49,3.92,0.10471281409263611,-0.016724858433008194,1.2195122241973877,0.0205078125,0.1826171875,0.20502331358761552,0.0076140017326731925,0.0,0.0,-1.5353830245553521,0.0,0.002808204971386584,0.0028080967398985716,0.06330930894568848,0.0633157862079155,0.0,-8.871814090169221e-05
1626109268.216513,-0.21174596251843636,6.5468763789806e-05,5.49,3.92,0.023551862686872482,-0.0002833193866536021,1.3414634466171265,-0.001953125,0.138671875,0.18430841445436497,0.005342302404337184,0.0,0.0,-1.5354048490673646,0.0,0.0036109857772489108,0.0036108214789806925,0.0643343205348217,0.06434126753653999,0.0,-7.455648417796882e-05
1626109268.290513,-0.1869254036822438,6.859786293072672e-05,5.48,3.89,1.168142716778675e-06,-1.0866443517443258e-05,1.3414634466171265,-0.001953125,0.138671875,0.16654260849104374,0.005079668901925647,0.0,0.0,-1.535522942135539,0.0,0.0028115065033577193,0.0028114147683565138,0.06330625387904218,0.06331341416448263,0.0,-6.223229264314712e-05
1626109268.336513,-0.18771727095573565,7.1528402755405e-05,5.48,3.89,1.168142716778675e-06,-1.0866443517443258e-05,0.3658536672592163,-0.0048828125,-0.015625,0.14655941503898542,0.006849379214772637,0.0,0.0,-1.5354751267387965,0.0,0.0028116430690412644,0.0028115703839253674,0.06328683573983505,0.06329410328905692,0.0,-4.870386925474479e-05
1626109268.396513,-0.16392768520257442,7.44406569418997e-05,5.48,3.87,1.168142716778675e-06,-1.0866443517443258e-05,0.3658536672592163,-0.0048828125,-0.015625,0.14655941503898542,0.006849379214772637,0.0,0.0,-1.5354751267387965,0.0,0.0028116430690412644,0.0028115703839253674,0.06328683573983505,0.06329410328905692,0.0,-4.870386925474479e-05
1626109268.478513,-0.12802554914403425,7.658374969163048e-05,5.47,3.86,1.168142716778675e-06,-1.0866443517443258e-05,1.3414634466171265,-0.00390625,0.0009765625,0.11152465640063837,0.0044714709700263795,0.0,0.0,-1.5355599713003996,0.0,0.0028116054357134415,0.002811555182778232,0.06327763672060269,0.06328472261386713,0.0,-2.6912077672697846e-05
1626109268.5165129,-0.1284839397370668,7.839371856541148e-05,5.47,3.86,1.168142716778675e-06,-1.0866443517443258e-05,1.402438998222351,-0.0048828125,-0.00634765625,0.0963082149287176,0.0035641919430621197,0.0,0.0,-1.535579549144183,0.0,0.003151282706605844,0.003151231751959784,0.06372026184065101,0.06372711466215579,0.0,-1.752338782521635e-05
1626109268.5825129,-0.09688953318915013,7.966385373755487e-05,5.47,3.85,1.168142716778675e-06,-1.0866443517443258e-05,1.402438998222351,-0.0048828125,-0.00634765625,0.0841139109441895,0.003360971490078987,0.0,0.0,-1.5356222239697421,0.0,0.002811480295499825,0.0028114449040136857,0.06328950404827634,0.06329599709025162,0.0,-1.0095309553172033e-05
1626109268.636513,-0.09887926799079569,8.058076860254265e-05,5.47,3.85,1.168142716778675e-06,-1.0866443517443258e-05,1.4634146690368652,0.00244140625,-0.00390625,0.07295987084983345,0.0031464375446853717,0.0,0.0,-1.5356377251616642,0.0,0.0028113973870240675,0.002811367917240478,0.06330282578843181,0.06330893212762188,0.0,-3.127149155053075e-06
1626109268.696513,-0.08636130081658765,8.117667247053402e-05,5.47,3.85,1.168142716778675e-06,-1.0866443517443258e-05,1.4634146690368652,0.00244140625,-0.00390625,0.0729598708425213,0.00307548869059608,0.0,0.0,-1.535639930690568,0.0,0.00281139738629534,0.0028113679172395885,0.06330282578843179,0.06330893195032562,0.0,-3.147564140051199e-06
1626109268.790513,-0.06326581951673937,8.149564278735316e-05,5.45,3.83,1.1753090802812949e-06,-1.0933108569588512e-05,1.2804877758026123,-0.0048828125,-0.00244140625,0.05489123601131143,0.02596167107832827,0.0,0.0,-1.5354002517103769,1.0,0.0028114055820481357,0.00281138497840055,0.06330701759513058,0.06331226780936196,0.0,9.62375562387179e-06
1626109268.816513,-0.06281552525747428,8.199696359394618e-05,5.45,3.83,0.0042964136227965355,0.03295594081282616,1.2804877758026123,-0.0029296875,0.00146484375,0.04753260095723306,0.048669623683131075,0.0,0.0,-1.5341594006096682,1.0,0.0028115218039320255,0.0028115032713218495,0.06330869717652252,0.06331351440484859,0.0,1.4333626415260571e-05
1626109268.876513,-0.05320390485711759,8.211222454940778e-05,5.45,3.84,0.0019153874600306153,0.34627047181129456,1.2804877758026123,-0.0029296875,0.00146484375,0.041192753943556405,0.10032546081967758,0.0,0.0,-1.5216852370395413,1.0,0.0028114343488249514,0.002811418365622792,0.0633193042904941,0.06332370303721274,0.0,7.978619809264524e-06
1626109268.936513,-0.048815739673973874,7.801112776766527e-05,5.45,3.84,0.00708328140899539,0.44516968727111816,-17.987804412841797,-0.00244140625,0.03173828125,0.03541338462963865,0.156353231309266,0.0,0.0,-1.501961821096137,1.0,0.0028114068465895934,0.0028113933625839825,0.06330967274214865,0.06331366821804438,0.0,-1.4130184881684642e-05
1626109268.996513,-0.0406881680492451,6.835494230265826e-05,5.46,3.84,0.00831424817442894,0.7297276854515076,-17.987804412841797,-0.00244140625,0.03173828125,0.03541338462963865,0.156353231309266,0.0,0.0,-1.501961821096137,1.0,0.0028114068465895934,0.0028113933625839825,0.06330967274214865,0.06331366821804438,0.0,-1.4130184881684642e-05
1626109269.0825129,-0.03026115183379641,5.320317751430585e-05,5.46,3.85,0.010112392716109753,0.8900846838951111,-40.60975646972656,-0.001953125,0.01611328125,0.02565726438790406,0.1931057829502932,0.0,0.0,-1.4293057240964084,1.0,0.002811460035992284,0.0028114497306861216,0.06330324275546552,0.06330650233027965,0.0,-0.00011714813280077688
1626109269.116513,-0.030506934698091886,2.9142275394737884e-05,5.46,3.85,0.009103442542254925,0.9723927974700928,-52.07317352294922,-0.044921875,0.0654296875,0.021389535336493803,0.18314617107515535,0.0,0.0,-1.3774423528862718,1.0,0.003380011446611535,0.003379998982240698,0.06403907741573016,0.06404202045800171,0.0,-0.00019259072584025248
1626109269.186513,-0.021605591040855385,1.823013544333555e-06,5.49,3.84,0.011264653876423836,0.9830208420753479,-52.07317352294922,-0.044921875,0.0654296875,0.01802081409019387,0.1787822581608943,0.0,0.0,-1.3244463892656673,1.0,0.002811253269434126,0.002811245649772532,0.06331646422453437,0.0633190903698498,0.0,-0.0002746680546725873
1626109269.236513,-0.02223410676710924,-2.722270347102898e-05,5.49,3.84,0.01269497536122799,0.9454683661460876,-53.84146499633789,-0.0146484375,0.103515625,0.014926875417564118,0.17384105239742662,0.0,0.0,-1.268306582528629,1.0,0.0028110825555427085,0.002811076149454843,0.06333592316291788,0.06333827085664166,0.0,-0.0003466892757107027
1626109269.2965128,-0.018761173000169665,-5.1947264074900574e-05,5.51,3.84,0.013056698255240917,0.9723809361457825,-57.0121955871582,-0.0048828125,0.01025390625,0.014926875417564118,0.17384105239742662,0.0,0.0,-1.268306582528629,1.0,0.0028110825555427085,0.002811076149454843,0.06333592316291788,0.06333827085664166,0.0,-0.0003466892757107027
1626109269.374513,-0.012191498769595155,-7.532608315177198e-05,5.51,3.78,0.010078644379973412,0.8844340443611145,-57.0121955871582,-0.0048828125,0.01025390625,0.009765678084416654,0.16806874862452562,0.0,0.0,-1.1527482087202139,0.0,0.002810935084927646,0.0028109307636094514,0.06336660622995365,0.06336846729015898,0.0,-0.00048294635094992845
1626109269.416513,-0.012597450281467424,-9.72159726002832e-05,5.51,3.78,0.010078644379973412,0.8844340443611145,-55.67073440551758,0.07080078125,0.0146484375,0.007696269607059183,0.16611857689061493,0.0,0.0,-1.0959044134948888,0.0,0.0029236262019426123,0.0029236224945166484,0.06353083390412151,0.06353248583343334,0.0,-0.0005313729624488786
1626109269.478513,-0.007711693715225168,-0.00011197007625805883,5.42,3.84,0.004535888321697712,0.39802539348602295,-55.67073440551758,0.07080078125,0.0146484375,0.006049121746600655,0.16347578825653378,0.0,0.0,-1.0513488957944794,0.0,0.0028109113623083267,0.0028109086490615415,0.06340620628745776,0.0634076673074906,0.0,-0.0005497734726803193
1626109269.5365129,-0.008137879309033286,-0.00011574178345368577,5.42,3.84,0.005707554053515196,0.016711730509996414,-7.682927131652832,0.05078125,0.013671875,0.004967052086436884,0.1567946836671472,0.0,0.0,-1.0279937978119877,0.0,0.0028109915736387785,0.0028109894835220296,0.06340746666563081,0.06340875620014622,0.0,-0.0005226609079406338
1626109269.596513,-0.006036259007578183,-0.00010296735930343589,5.44,3.9,1.4553664868799387e-06,-1.3538293387682643e-05,-7.682927131652832,0.05078125,0.013671875,0.004967052086436884,0.1567946836671472,0.0,0.0,-1.0279937978119877,0.0,0.0028109915736387785,0.0028109894835220296,0.06340746666563081,0.06340875620014622,0.0,-0.0005226609079406338
1626109269.686513,-0.004159889993137867,-8.814330697345429e-05,5.33,3.95,1.6664124586895923e-06,-1.5501511370530352e-05,1.5243902206420898,-0.00244140625,-0.0009765625,0.0035668338871411433,0.12319953218007812,0.0,0.0,-1.016148652240498,0.0,0.002811501101882758,0.0028114997513679473,0.06339729269551268,0.06339829018087091,0.0,-0.0004546176409879737
1626109269.716513,-0.004162383135129666,-7.35079956194613e-05,5.33,3.95,1.6664124586895923e-06,-1.5501511370530352e-05,1.5243902206420898,-0.00244140625,-0.0009765625,0.0030986973070587635,0.0377721628587772,0.0,0.0,-1.0182861513991341,0.0,0.0028116714972051425,0.002811670357125567,0.06338482308133783,0.0633856973491272,0.0,-0.0004278846655165958
1626109269.7765129,-0.003467843591551812,-6.150798273938082e-05,5.26,4.0,1.6664124586895923e-06,-1.5501511370530352e-05,1.402438998222351,-0.00732421875,0.00390625,0.0026887695308956752,0.035345914197668055,0.0,0.0,-1.018097648487517,0.0,0.002811644787145665,0.0028116438024590315,0.06338555199978325,0.06338631686744903,0.0,-0.00039947647991370373
1626109269.836513,-0.0031810581709046932,-4.9742520746862636e-05,5.26,4.0,1.656251242820872e-06,-1.5406989405164495e-05,1.402438998222351,-0.00732421875,0.00390625,0.002333577838813126,0.020070611912122033,0.0,0.0,-1.0185726647717277,0.0,0.0028116165706561468,0.002811615717310374,0.06336563954063501,0.06336630706819238,0.0,-0.0003736995764062709
1626109269.896513,-0.0026585249656953637,-3.915511275487e-05,5.22,3.99,1.6462133771710796e-06,-1.5313613403122872e-05,1.3414634466171265,-0.00244140625,0.00390625,0.002333577838813126,0.020070611912122033,0.0,0.0,-1.0185726647717277,0.0,0.0028116165706561468,0.002811615717310374,0.06336563954063501,0.06336630706819238,0.0,-0.0003736995764062709
1626109269.978513,-0.0020231880132377516,-2.9328514464128794e-05,5.3,3.98,1.6664124586895923e-06,-1.5501511370530352e-05,1.3414634466171265,-0.001953125,0.001953125,0.0017551403215054992,0.011582737873789582,0.5,0.0,-1.018957757029727,0.0,0.0028116824079786294,0.0028116817608626354,0.06334516174453556,0.06334566722225196,0.0,-0.00032602496010858504
1626109270.0165129,-0.002033090197069174,-2.0187917084688238e-05,5.3,3.98,0.02113090269267559,-0.13188637793064117,1.3414634466171265,-0.001953125,0.001953125,0.027372400139047414,0.007615614415484679,0.5,0.0,-1.0190864919688005,0.0,0.0031514088389087425,0.003151408096577435,0.06378120757361391,0.06378164625150373,0.0,-0.00030414047314433686
1626109270.0825129,0.37992566100462577,-1.17918584975192e-05,5.24,4.01,0.02113090269267559,-0.13188637793064117,1.3414634466171265,-0.001953125,0.001953125,0.04654373700233928,0.007065781352130208,0.5,0.0,-1.0214349302850783,0.0,0.0028115835431771425,0.0028115820727585856,0.06334381039644714,0.06334419492554605,0.0,-0.0002826097359875977
1626109270.136513,0.3776441021126593,-3.909661932901952e-06,5.24,4.01,0.0822509378194809,-0.03276083245873451,-1.097561001777649,0.0009765625,-0.087890625,0.06809723463275077,0.006245072512633617,0.5,0.0,-1.0271061092227805,0.0,0.0028115000576405405,0.002811496659440583,0.06335112409240354,0.06335148002386429,0.0,-0.00027782864075029146
1626109270.196513,0.3626868848833251,-2.124973650604447e-06,5.32,4.03,0.1817106157541275,0.04987473785877228,-2.1341464519500732,0.0576171875,0.033203125,0.06809722587727257,-0.007175179346219832,0.5,0.0,-1.0275295266571276,0.0,0.0028115000574803553,0.002811496659382225,0.0633511240924026,0.06335148002386413,0.0,-0.0002778321523456797
1626109270.270513,0.32692019889866103,-8.480129637941075e-06,5.37,4.03,0.39231401681900024,0.0167104322463274,-0.3658536672592163,0.154296875,0.107421875,0.09861981216510365,0.0020742349713017065,0.5,0.0,-1.028970435941286,0.0,0.002811534878275457,0.002811524194612174,0.06335257978940793,0.06335301287834816,0.0,-0.0003051820627583866
1626109270.316513,-0.09331781912679124,-9.97737225308719e-06,5.37,4.03,0.486157089471817,-1.3104278878017794e-05,-0.3658536672592163,0.154296875,0.107421875,0.10569533373971142,0.01736092552317581,0.5,0.0,-1.0274506981818543,0.0,0.0028115612232955008,0.0028115503173509575,0.06335235126538732,0.06335289416244166,0.0,-0.0002865227934710988
1626109270.376513,-0.08812937347472555,-6.215701739003268e-07,5.4,4.0,0.486157089471817,-1.3104278878017794e-05,-4.02439022064209,-0.28076171875,0.0673828125,0.1183568593692649,0.0163350128684098,0.5,0.0,-1.0261371218592488,0.0,0.002811494457987112,0.0028114827317558258,0.06335921310870858,0.06335989453807406,0.0,-0.00024254701183543933
1626109270.436513,-0.09870649594877141,1.8440906843165088e-05,5.4,4.0,0.527075469493866,0.016612133011221886,-4.02439022064209,-0.28076171875,0.0673828125,0.13490050411405485,0.01739281352643595,0.5,0.0,-1.0242122545751338,0.0,0.002811494104917005,0.0028114813512077155,0.06334503425118035,0.06334587047441832,0.0,-0.00017718400424060485
1626109270.496513,-0.10474360012347078,4.510595569887583e-05,5.38,3.95,0.5303443074226379,0.0164360161870718,-0.3048780560493469,0.12548828125,-0.671875,0.13490050411405485,0.01739281352643595,0.5,0.0,-1.0242122545751338,0.0,0.002811494104917005,0.0028114813512077155,0.06334503425118035,0.06334587047441832,0.0,-0.00017718400424060485
1626109270.5825129,-0.15184659710091641,7.086656513490093e-05,5.36,3.91,0.4944620430469513,0.032768841832876205,-0.3048780560493469,0.12548828125,-0.671875,0.168389043422493,0.021221708754202318,0.5,0.0,-1.0216940171959488,0.0,0.0028116370689077906,0.002811615271415176,0.06332740153012953,0.06332869695781455,0.0,-6.753378933567123e-05
1626109270.616513,-0.13854200956873888,8.826206697477345e-05,5.36,3.91,0.501741349697113,-0.00028599126380868256,2.0731706619262695,-0.27734375,-0.18701171875,0.1805693490096996,0.022528612191282684,0.5,0.0,-1.0198756561664328,0.0,0.0033805229933729065,0.003380480663657082,0.06405527673670364,0.06405692347095956,0.0,-2.0547985184986554e-05
1626109270.686513,-0.18239327793186744,0.00010549319877576332,5.34,3.88,0.501741349697113,-0.00028599126380868256,2.6219513416290283,-0.14697265625,-0.1044921875,0.1940705960808551,0.021382750827077135,0.5,0.0,-1.0188784499787005,0.0,0.002819931089354329,0.002819897208727237,0.06333165148391941,0.06333370291037976,0.0,1.693980347269975e-05
1626109270.737189,-0.17225246605193487,0.00011927389352035387,5.34,3.88,0.493962824344635,0.00027803564444184303,2.6219513416290283,-0.14697265625,-0.1044921875,0.2039854783611914,0.011478561728155298,0.5,0.0,-1.0188792705958987,0.0,0.002813465127068711,0.002813429438762044,0.0633032813372626,0.0633057894840497,0.0,3.5555946863991545e-05
1626109270.797189,-0.17963253282040942,0.00012527258589084778,5.33,3.83,0.498761385679245,0.016727209091186523,1.402438998222351,-0.58349609375,0.06787109375,0.2039854783611914,0.011478561728155298,0.5,0.0,-1.0188792705958987,0.0,0.002813465127068711,0.002813429438762044,0.0633032813372626,0.0633057894840497,0.0,3.5555946863991545e-05
1626109270.875189,-0.2122882028112635,0.00012701128104302875,5.32,3.78,0.512213945388794,-0.04931415244936943,-2.5609755516052246,0.02490234375,-0.0390625,0.21967059558242807,0.0053273694625511825,0.5,0.0,-1.018721926261096,0.0,0.002811734070332963,0.002811688649428608,0.06329215730366561,0.06329577620258818,0.0,5.0601842934419516e-05
1626109270.9171891,-0.20114352628461218,0.00012849835866384358,5.32,3.78,0.49182796478271484,0.017181620001792908,-2.5609755516052246,0.02490234375,-0.0390625,0.22589610911190205,0.0020100651682613503,0.5,0.0,-1.0193577841391401,0.0,0.0029243592134197112,0.002924305380171154,0.0634435877683983,0.06344783271666093,0.0,5.148771576065229e-05
1626109270.9791892,-0.22634882813570414,0.00012741031590067162,5.28,3.74,0.5110045075416565,-0.016729427501559258,1.2804877758026123,0.02880859375,-0.02978515625,0.23197587891225505,0.00188393636782032,0.5,0.0,-1.0194459187939098,0.0,0.0028114957638420346,0.002811443261152781,0.06330846237859843,0.06331333602453751,0.0,4.5634384830430865e-05
1626109271.037189,-0.21884040345231906,0.00012398473952609417,5.26,3.7,0.5110045075416565,-0.016729427501559258,1.2804877758026123,0.02880859375,-0.02978515625,0.2369517806742132,0.011788191072201505,0.0,0.0,-1.0191468227055651,0.0,0.0028114614506631183,0.0028114106957274755,0.06330251729971338,0.06330798160978134,0.0,4.4815696036477624e-05
1626109271.0971892,-0.2144219701151915,0.00012214703764623248,5.26,3.7,0.4504702091217041,0.033231474459171295,-2.2560975551605225,-0.0048828125,-0.0400390625,0.2369517806742132,0.011788191072201505,0.0,0.0,-1.0191468227055651,0.0,0.0028114614506631183,0.0028114106957274755,0.06330251729971338,0.06330798160978134,0.0,4.4815696036477624e-05
1626109271.187189,-0.2402513500864178,0.00012111651554579334,5.24,3.67,0.2704833447933197,-5.918838724028319e-06,1.2195122241973877,-0.00830078125,0.28515625,0.2399069148429222,0.008103682249199844,0.0,0.0,-1.0183914845344,0.0,0.002811580836952717,0.0028115236113404342,0.06329590876389564,0.0633025599798184,0.0,4.352168314848081e-05
1626109271.217189,-0.2279614502766567,0.00011828755358718219,5.21,3.64,0.16341827809810638,0.016995547339320183,1.2195122241973877,-0.00830078125,0.28515625,0.23439524925061436,0.005171023200034259,0.0,0.0,-1.0183936227197317,0.0,0.0028116441216460147,0.0028115837187113308,0.06329083326148062,0.06329805130576444,0.0,4.167419037783137e-05
1626109271.277189,-0.22371845038432736,0.000115497218040022,5.21,3.64,0.07629198580980301,0.016627082601189613,2.2560975551605225,-0.00927734375,0.146484375,0.2231119821077013,0.004847860404754251,0.0,0.0,-1.0183861137879857,0.0,0.002811568833642349,0.002811508601311903,0.06330008839695475,0.06330785550706976,0.0,4.3305268058256764e-05
1626109271.3371892,-0.23337251841341924,0.00011367505517663938,5.17,3.63,0.07629198580980301,0.016627082601189613,2.2560975551605225,-0.00927734375,0.146484375,0.20691576061211106,0.00022223846301746354,0.0,0.0,-1.0183608204680075,0.0,0.0028115157948092008,0.0028114647200974236,0.0632887644303181,0.06329694223146642,0.0,4.383661661000934e-05
1626109271.3971891,-0.21573323493531804,0.00011128849092733819,5.17,3.63,0.007839360274374485,1.7006165080601932e-06,0.24390244483947754,-0.013671875,0.0576171875,0.20691576061211106,0.00022223846301746354,0.0,0.0,-1.0183608204680075,0.0,0.0028115157948092008,0.0028114647200974236,0.0632887644303181,0.06329694223146642,0.0,4.383661661000934e-05
1626109271.4791892,-0.1866152039355588,0.00010942310147317414,5.16,3.63,1.8281626523730665e-07,1.7006165080601932e-06,1.7682926654815674,-0.00634765625,-0.00537109375,0.16533023183930678,0.0012481385574107957,0.0,0.0,-1.018251793159372,0.0,0.0028115865888758626,0.0028115450013844034,0.06328393413329976,0.06329256014291257,0.0,4.938753801493276e-05
1626109271.517189,-0.1862688991954177,0.00010764894964160256,5.15,3.61,1.8281626523730665e-07,1.7006165080601932e-06,1.7682926654815674,-0.00634765625,-0.00537109375,0.14406934082332695,0.0034444556584687213,0.0,0.0,-1.018150639318698,0.0,0.0031512937383421117,0.0031512513052954555,0.0637266912342958,0.06373534715029298,0.0,5.409235463675489e-05
1626109271.583189,-0.14493894633249602,0.00010631207492695572,5.15,3.61,1.8281626523730665e-07,1.7006165080601932e-06,1.2804877758026123,-0.0068359375,0.01513671875,0.126445097352913,0.0032499642079176693,0.0,0.0,-1.0181495805618592,0.0,0.002811497111317074,0.002811467896412309,0.06329560394493706,0.06330407566797087,0.0,5.720815495473547e-05
1626109271.6371891,-0.14768860197045133,0.00010497445219918932,5.14,3.61,1.8281626523730665e-07,1.7006165080601932e-06,1.2804877758026123,-0.0068359375,0.01513671875,0.10996972877347519,0.0030435624869792244,0.0,0.0,-1.0181460118973398,0.0,0.00281141634294903,0.002811392612389453,0.06330847841883021,0.0633166695491191,0.0,6.081515969941094e-05
1626109271.697189,-0.12971609266411852,0.00010366814016683953,5.14,3.61,1.8281626523730665e-07,1.7006165080601932e-06,1.2804877758026123,-0.009765625,0.01611328125,0.1099697287906352,0.002859144542435036,0.0,0.0,-1.0181517664165973,0.0,0.0028114163419135003,0.0028113926119947594,0.0633084784188302,0.0633166692523765,0.0,6.074688210631709e-05
1626109271.7711892,-0.09549644597911602,0.00010224671155554209,5.14,3.6,1.8281626523730665e-07,1.7006165080601932e-06,1.402438998222351,-0.00927734375,0.0029296875,0.0829038152459871,0.0023390541620167534,0.0,0.0,-1.0181690149162441,0.0,0.0028114549436798093,0.0028114385125735356,0.06331932389627265,0.06332667176386517,0.0,6.66323836907609e-05
1626109271.8171892,-0.0967026786109003,0.00010079373537055932,5.14,3.6,1.8393784273484926e-07,1.7110497765315813e-06,1.402438998222351,-0.00927734375,0.0029296875,0.0719028289215186,0.002180554811934135,0.0,0.0,-1.0181770987814966,0.0,0.002811486815589139,0.002811472788776032,0.06332309375672202,0.06332994505045121,0.0,6.895483435807503e-05
1626109271.8771892,-0.08031449473119089,9.92484764796317e-05,5.14,3.6,1.8281626523730665e-07,1.7006165080601932e-06,1.2804877758026123,-0.00830078125,0.0126953125,0.062341347957046336,0.0020436078502721624,0.0,0.0,-1.018184292664589,0.0,0.0028114244372784824,0.0028114125362847997,0.0633335371050705,0.06333987730655474,0.0,7.085789696110324e-05
1626109271.937189,-0.07383326665215552,9.761458858664046e-05,5.12,3.61,1.8281626523730665e-07,1.7006165080601932e-06,1.2804877758026123,-0.00830078125,0.0126953125,0.05407945491799867,0.0020375272888347486,0.0,0.0,-1.0181859428184223,0.0,0.002811427623316932,0.002811417782228529,0.06332256186921008,0.06332838405123199,0.0,7.245995658320877e-05
1626109271.997189,-0.061399663453224874,9.5936164965261e-05,5.12,3.61,1.8281626523730665e-07,1.7006165080601932e-06,1.3414634466171265,-0.0048828125,0.01123046875,0.05407945491799867,0.0020375272888347486,0.0,0.0,-1.0181859428184223,-1.0,0.002811427623316932,0.002811417782228529,0.06332256186921008,0.06332838405123199,0.0,7.245995658320877e-05
1626109272.083189,-0.046876234923794946,9.42274577820663e-05,5.12,3.6,0.007717883214354515,-0.3314373195171356,1.9512195587158203,0.0146484375,0.19677734375,0.04066310151443553,-0.07502008778349231,0.0,0.0,-1.0201950640042157,-1.0,0.002811569366717821,0.0028115617496190324,0.0633103047908518,0.06331513785395074,0.0,6.779012016920847e-05
1626109272.1171892,-0.04691979347594949,8.964831409948734e-05,5.13,3.61,0.004886788781732321,-0.4288395643234253,1.9512195587158203,0.0146484375,0.19677734375,0.030947232786749705,-0.16432824108201277,0.0,0.0,-1.0488457126549497,-1.0,0.002811547378065809,0.00281154132055084,0.0633091815462335,0.06331312869284864,0.0,8.091014610695902e-05
1626109272.187189,-0.03544510591336924,8.85630585798246e-05,5.13,3.61,0.008861711248755455,-0.6100286245346069,27.560976028442383,0.0419921875,0.017578125,0.027152580045347548,-0.21030256821002044,0.0,0.0,-1.0764358817767774,-1.0,0.002811564778864434,0.0028115592591223364,0.06329093599272698,0.06329448303809629,0.0,9.456325364763607e-05
1626109272.237189,-0.03596796832740142,9.009363081645255e-05,5.13,3.61,0.011868512257933617,-0.8689821362495422,27.560976028442383,0.0419921875,0.017578125,0.027152580045347548,-0.21030256821002044,0.0,0.0,-1.0764358817767774,-1.0,0.002811564778864434,0.0028115592591223364,0.06329093599272698,0.06329448303809629,0.0,9.456325364763607e-05
1626109272.297189,-0.030615536381901752,9.27304004848138e-05,5.13,3.61,0.011868512257933617,-0.8689821362495422,49.93902587890625,0.0556640625,0.0234375,0.023664435108936198,-0.19706193586081427,0.0,0.0,-1.1193881932192018,-1.0,0.003844590739504343,0.0038445808719836222,0.06460883264306659,0.06461203518530385,0.0,0.00010298711821161752
1626109272.375189,-0.02409819999702621,9.263345682238905e-05,5.14,3.61,0.008852209895849228,-0.9454395771026611,56.585365295410156,-0.06201171875,-0.02734375,0.019480384221629583,-0.1874977408546391,0.0,0.0,-1.216428906818939,-1.0,0.002923954056062817,0.0029239486450407903,0.06344883059833828,0.06345136666655896,0.0,9.442406709259647e-05
1626109272.4171891,-0.024045930312851266,8.945955712294286e-05,5.14,3.64,0.014811142347753048,-0.956060528755188,56.585365295410156,-0.06201171875,-0.02734375,0.017764048072429588,-0.18384992310307494,0.0,0.0,-1.2710416115284235,-1.0,0.0028110542867026177,0.0028110494087036004,0.06332402356131342,0.06332627857639198,0.0,7.558365651500805e-05
1626109272.4791892,-0.01951942489570807,8.490935398428662e-05,5.14,3.64,0.010867721401154995,-0.9507724642753601,57.13414764404297,-0.03271484375,0.01904296875,0.016189600407677744,-0.18125241981480536,0.0,0.0,-1.3272063686200037,-1.0,0.0028109304657579857,0.002810925784818741,0.06333078972563615,0.06333279083362031,0.0,6.39588221345828e-05
1626109272.537189,-0.019696141735740146,7.568698666050894e-05,5.16,3.63,0.012759563513100147,-0.9454739093780518,57.13414764404297,-0.03271484375,0.01904296875,0.016189600407677744,-0.18125241981480536,0.0,0.0,-1.3272063686200037,-1.0,0.0028109304657579857,0.002810925784818741,0.06333078972563615,0.06333279083362031,0.0,6.39588221345828e-05
1626109272.5971892,-0.017137886036669235,6.93518077196234e-05,5.16,3.63,0.010587496683001518,-0.9292973875999451,55.0,0.01953125,-0.01025390625,0.014357520016591397,-0.174066643178107,0.0,0.0,-1.3884811297142394,-1.0,0.004555471807998456,0.0045554600774789945,0.06555058875665881,0.06555237515222646,0.0,4.993620992114912e-05
1626109272.687189,-0.014801566590840391,6.163240681021802e-05,5.16,3.61,0.010863409377634525,-0.9560210108757019,54.20731735229492,0.0390625,-0.06298828125,0.012582268039592618,-0.17885204586484266,0.0,0.0,-1.4956997398630862,-1.0,0.0028110389839997555,0.0028110350689813084,0.06335940704131784,0.0633607866620142,0.0,1.1148892434096724e-05
1626109272.717189,-0.014475676733610042,5.4098792719366314e-05,5.15,3.61,0.01083157118409872,-0.9505097270011902,54.20731735229492,0.0390625,-0.06298828125,0.011659502436017032,-0.17964566379085634,0.0,0.0,-1.5524568717145335,-1.0,0.0028109869481064255,0.0028109833762425714,0.06338057651767544,0.0633817901003091,0.0,-9.473114004524216e-06
1626109272.777189,-0.012947423589103686,4.51007830405444e-05,5.15,3.61,0.010995329357683659,-0.961885392665863,52.9878044128418,-0.03564453125,0.06884765625,0.010906966208968688,-0.18147892216838932,0.0,0.0,-1.6099010782006518,-1.0,0.002810944350888243,0.0028109411755818225,0.06338093137958882,0.06338199597508856,0.0,-3.484492297285029e-05
1626109272.8371892,-0.012643999429250211,3.637315768083891e-05,5.17,3.6,0.008821615017950535,-0.9457241892814636,52.9878044128418,-0.03564453125,0.06884765625,0.010906966208968688,-0.18147892216838932,0.0,0.0,-1.6099010782006518,-1.0,0.002810944350888243,0.0028109411755818225,0.06338093137958882,0.06338199597508856,0.0,-3.484492297285029e-05
1626109272.8971891,-0.011239453364114197,2.620625725140421e-05,5.17,3.6,0.00873991847038269,-0.9402171969413757,52.43902587890625,-0.005859375,0.037109375,0.010006653973490138,-0.17954160446715642,0.0,0.0,-1.670923729769536,-1.0,0.004078853980498908,0.004078848289901047,0.06500647207541445,0.06500740614512439,0.0,-5.9757588632095666e-05
1626109272.9791892,-0.010231753307357306,1.6301914143290008e-05,5.19,3.59,0.010454660281538963,-0.9174759984016418,52.621952056884766,-0.01904296875,-0.0537109375,0.009048559921548578,-0.1883429167806248,0.0,0.0,-1.7825137885116507,-1.0,0.003150598782244132,0.0031505961680423204,0.06384818608226847,0.06384889519432306,0.0,-0.00010422264720740553
1626109273.017189,-0.01000497141459273,8.18807221208928e-06,5.22,3.6,0.007572161965072155,-0.8407921195030212,52.621952056884766,-0.01904296875,-0.0537109375,0.008564307630444513,-0.19246862740457032,0.0,0.0,-1.836971352643141,-1.0,0.0028110430527472376,0.0028110412537596403,0.06342444326239602,0.06342505949742058,0.0,-0.00011953419064088739
1626109273.083189,-0.00910317719634459,-4.0871196974951204e-07,5.22,3.6,0.0034045677166432142,-0.2987975776195526,39.5121955871582,-0.02099609375,-0.10986328125,0.007953469763302717,-0.19085586108836272,0.0,0.0,-1.8778716268528661,-1.0,0.00281100673577183,0.0028110052404661566,0.0634438105538336,0.06344434488428727,0.0,-0.00012250637115534925
1626109273.1371891,-0.009046953063516206,-6.0036773600360385e-06,5.24,3.61,0.0011741106864064932,0.10004251450300217,39.5121955871582,-0.02099609375,-0.10986328125,0.007953469763302717,-0.19085586108836272,0.0,0.0,-1.8778716268528661,-1.0,0.00281100673577183,0.0028110052404661566,0.0634438105538336,0.06344434488428727,0.0,-0.00012250637115534925
1626109273.197189,-0.008599993558731719,-6.972201672796617e-06,5.24,3.61,2.275233782711439e-06,2.1164963982300833e-05,-3.7804877758026123,0.0322265625,0.009765625,0.007027808281322559,-0.17565664379225307,0.0,0.0,-1.8990151910892312,-1.0,0.00371817013684486,0.0037181681414332718,0.06460902894009364,0.06460948241204177,0.0,-0.00011535902188992824
1626109273.2800038,-0.007127596145453368,-4.2143216262528714e-06,5.26,3.61,2.289107214892283e-06,2.1294019461493008e-05,1.9512195587158203,-0.0146484375,-0.021484375,0.005589643849339768,-0.1420116684072149,0.0,0.0,-1.9055064984757606,-1.0,0.002816306231125377,0.002816305394819154,0.06346464326825053,0.06346497825246745,0.0,-9.969459560593066e-05
1626109273.3260038,-0.007156937274547753,-1.0568000475930616e-06,5.28,3.62,2.3031509499560343e-06,2.1424657461466268e-05,1.9512195587158203,-0.0146484375,-0.021484375,0.00488435127819742,-0.13267102943499245,0.0,0.0,-1.9063530635424304,-1.0,0.0028125807992977854,0.0028125800980423523,0.06346274099568719,0.06346302802046697,0.0,-9.419368521425494e-05
1626109273.386004,-0.006124782045135355,1.5536803890329252e-06,5.28,3.62,2.3031509499560343e-06,2.1424657461466268e-05,1.2804877758026123,-0.0107421875,0.00341796875,0.004254898548617565,-0.11109153140309311,0.0,0.0,-1.9060242835419892,-1.0,0.002811841448799188,0.002811840861661824,0.06344034633131608,0.0634405914605539,0.0,-8.897523451196255e-05
1626109273.446004,-0.005725633735860746,3.621609393354555e-06,5.19,3.61,2.275233782711439e-06,2.1164963982300833e-05,1.2804877758026123,-0.0107421875,0.00341796875,0.004254898548617565,-0.11109153140309311,0.0,0.0,-1.9060242835419892,-1.0,0.002811841448799188,0.002811840861661824,0.06344034633131608,0.0634405914605539,0.0,-8.897523451196255e-05
1626109273.5060039,-0.004803928592783755,5.477234318690136e-06,5.19,3.61,2.289107214892283e-06,2.1294019461493008e-05,1.2804877758026123,-0.00244140625,0.01513671875,0.0036002762097089463,-0.0460120571531564,0.0,0.0,-1.9051059173846598,-1.0,0.004318225407059843,0.004318224311941985,0.06533633346913831,0.06533654067167097,0.0,-8.268273694941144e-05
1626109273.5920038,-0.0036963853041948637,7.4343882054512846e-06,5.22,3.6,2.3031509499560343e-06,2.1424657461466268e-05,1.3414634466171265,0.0,0.00927734375,0.0027852274596711748,-0.021438389922841476,0.0,0.0,-1.9022954612682315,-1.0,0.0028118232445407585,0.002811822887013652,0.06338285935286737,0.06338300969246838,0.0,-7.229071238998122e-05
1626109273.626004,-0.0036983842344555343,9.194051619030716e-06,5.15,3.6,2.3031509499560343e-06,2.1424657461466268e-05,1.3414634466171265,-0.00439453125,0.00830078125,0.002414780804996921,-0.02006852393007567,0.0,0.0,-1.9019995421997977,-1.0,0.0028117441756122913,0.0028117438727455583,0.06337909796582065,0.0633792252159169,0.0,-6.699830983715333e-05
1626109273.686004,-0.0031354553142280877,1.1039408268019022e-05,5.15,3.6,2.275233782711439e-06,2.1164963982300833e-05,1.3414634466171265,-0.00439453125,0.00830078125,0.0020949300395454343,-0.01102464345294639,0.0,0.0,-1.9015542458953454,-1.0,0.00281168010393982,0.002811679849393748,0.06335600219697768,0.06335610975413916,0.0,-6.166505346223171e-05
1626109273.7460039,-0.0028599374663111237,1.2805537541550771e-05,5.2,3.61,2.289107214892283e-06,2.1294019461493008e-05,1.3414634466171265,-0.00439453125,0.00830078125,0.0020949300395454343,-0.01102464345294639,0.0,0.0,-1.9015542458953454,-1.0,0.00281168010393982,0.002811679849393748,0.06335600219697768,0.06335610975413916,0.0,-6.166505346223171e-05
1626109273.8060038,-0.0023976043351376735,1.4511392840028664e-05,5.2,3.61,2.289107214892283e-06,2.1294019461493008e-05,1.2804877758026123,0.001953125,0.01025390625,0.0017831411309736395,-0.04889441847082031,0.0,0.0,-1.902864934601087,-1.0,0.0038450436631017166,0.003845043282502813,0.0646667574909992,0.06466684783008038,0.0,-5.618111582065643e-05
1626109273.8840039,-0.0018158218075330886,1.6092850787282663e-05,5.22,3.6,0.002555796643719077,-0.049595098942518234,1.8902438879013062,-0.00537109375,0.0224609375,0.0013939025597682544,-0.12647557938524154,0.0,0.0,-1.905949445335614,-1.0,0.0029243637709712336,0.0029243636067747213,0.06348361005333522,0.06348367536663682,0.0,-4.7479003070803435e-05
1626109273.926004,-0.0018320469210419091,1.7456059890758247e-05,5.15,3.62,0.004126952961087227,-0.36238259077072144,1.8902438879013062,-0.00537109375,0.0224609375,0.0014448250976143776,-0.17204941409709668,0.0,0.0,-1.9156065845717785,-1.0,0.002811501160240421,0.0028115010312587253,0.0633438764591912,0.06334393222862106,0.0,-4.410167816715042e-05
1626109273.988004,-0.0013966947682145705,1.868822155850182e-05,5.15,3.62,0.010050701908767223,-0.7086533904075623,31.40243911743164,0.0205078125,0.0947265625,0.0017249103362073355,-0.21724053540785634,0.0,0.0,-1.9417567234182855,0.0,0.002811456120324583,0.002811456011474794,0.06333395033334087,0.06333399827324163,0.0,-4.884505961972733e-05
1626109274.0460038,-0.0013454489878296201,1.9504755329757174e-05,5.1,3.63,0.011968891136348248,-0.8740202188491821,50.73170852661133,0.048828125,-0.029296875,0.0017249103362073355,-0.21724053540785634,0.0,0.0,-1.9417567234182855,0.0,0.002811456120324583,0.002811456011474794,0.06333395033334087,0.06333399827324163,0.0,-4.884505961972733e-05
1626109274.106004,-0.0012440741942354042,1.727401943731279e-05,5.1,3.63,0.002423298079520464,-0.3812955915927887,50.73170852661133,0.048828125,-0.029296875,0.002146379741777208,-0.2039407665435097,0.0,0.0,-1.9829881487156955,0.0,0.003380218708864765,0.003380218579484418,0.06406622728735872,0.06406626901242095,0.0,-6.882723975817952e-05
1626109274.176004,-0.002168060324344418,9.472495043042593e-06,5.16,3.63,0.0009792536729946733,0.08203191310167313,-0.6097561120986938,-0.02001953125,-0.0087890625,0.0024772705714291234,-0.17192420654204946,0.0,0.0,-2.034395077736214,0.0,0.002811336426820893,0.002811336360533041,0.06333774471009267,0.06333777759828747,0.0,-7.832787589971765e-05
1626109274.226004,-0.002006002313851636,5.546443334027605e-06,5.21,3.63,9.642449185776059e-07,-8.969720511231571e-06,-0.3658536672592163,0.001953125,0.025390625,0.0023173858132397632,-0.16125783532524185,0.0,0.0,-2.040917007762447,0.0,0.0028113546162781286,0.002811354558860478,0.06334800175969003,0.06334803180496083,0.0,-7.11868904945603e-05
1626109274.2860038,-0.0022169308597393862,5.719510156693054e-06,5.21,3.63,0.004296827595680952,0.03295208886265755,-0.3658536672592163,0.001953125,0.025390625,0.002010242416098476,-0.13841907180858906,0.0,0.0,-2.042493554001799,0.0,0.0028114132749502635,0.0028114132254021314,0.06333453640911935,0.06333456439615719,0.0,-6.40749016331643e-05
1626109274.346004,-0.0024814076440112776,8.21943515512182e-06,5.24,3.65,0.0021665520034730434,0.016608648002147675,1.1585365533828735,0.00341796875,0.00341796875,0.002010242416098476,-0.13841907180858906,0.0,0.0,-2.042493554001799,0.0,0.0028114132749502635,0.0028114132254021314,0.06333453640911935,0.06333456439615719,0.0,-6.40749016331643e-05
1626109274.406004,-0.0022917016506797494,1.0639830078439708e-05,5.24,3.65,9.797971642910852e-07,-9.114392014453188e-06,1.1585365533828735,0.00341796875,0.00341796875,0.001625086026399559,-0.11222458125837254,0.0,0.0,-2.0444683206080607,0.0,0.004080193050609374,0.0040801929599083115,0.06494445222972367,0.06494447976643665,0.0,-5.84969325673854e-05
1626109274.488004,-0.0016616402683074741,1.2365819304325563e-05,5.27,3.65,9.797971642910852e-07,-9.114392014453188e-06,1.585365891456604,-0.00830078125,0.00537109375,0.027010495937541283,-0.041550655351063476,0.5,0.0,-2.039178260327748,0.0,0.0031513228871866044,0.0031513227907611057,0.06375963687145646,0.0637596624646623,0.0,-5.0031554003715125e-05
1626109274.5260038,-0.00169371787379674,1.3650738183255255e-05,5.29,3.64,9.797971642910852e-07,-9.114392014453188e-06,-1.3414634466171265,-0.00244140625,-0.08642578125,0.045838667139197535,-0.03907883685532611,0.5,0.0,-2.038399562454697,0.0,0.0028115257673254263,0.0028115245181889017,0.0633243620381366,0.06332439173141818,0.0,-4.894669756817273e-05
1626109274.5920038,0.3802165920676799,1.5056686378055525e-05,5.29,3.64,0.03659890964627266,0.23076975345611572,-1.3414634466171265,-0.00244140625,-0.08642578125,0.06531990838165128,-0.017886970387689334,0.5,0.0,-2.032540750354519,0.0,0.0028115796879929836,0.002811576100232394,0.0633058898344307,0.06330594073860778,0.0,-5.142064492135352e-05
1626109274.646004,0.3778017986404098,1.5437770567149817e-05,5.22,3.63,0.11542079597711563,0.016605859622359276,-1.0365853309631348,-0.01513671875,-0.1748046875,0.06531990838165128,-0.017886970387689334,0.5,0.0,-2.032540750354519,0.0,0.0028115796879929836,0.002811576100232394,0.0633058898344307,0.06330594073860778,0.0,-5.142064492135352e-05
1626109274.706004,0.35385492500517973,1.4561276174833875e-05,5.22,3.63,0.21768613159656525,-0.06635963916778564,-1.0365853309631348,-0.01513671875,-0.1748046875,0.09053962813878709,0.004624922796387019,0.5,0.0,-2.025598223557224,0.0,0.003611599676588959,0.003611585769173013,0.06432823016956038,0.06432833989420148,0.0,-2.201658647552357e-05
1626109274.7800038,0.331278605565393,2.5021229112376654e-05,5.25,3.62,0.4312213659286499,1.704735041130334e-05,4.207317352294922,-0.0673828125,-0.46923828125,0.09340685960365154,0.0064351612217218674,0.5,0.0,-2.0251998526877806,0.0,0.00281152318273382,0.0028115114679894216,0.0633043708173661,0.0633047107023915,0.0,6.0617937377615523e-05
1626109274.8260038,-0.08929525228138084,4.4238877418078886e-05,5.19,3.6,0.4312213659286499,1.704735041130334e-05,3.9634146690368652,0.091796875,-0.29736328125,0.10310162863696083,0.005989979179842008,0.5,0.0,-2.0260069060876287,0.0,0.0028114158680524835,0.0028114039450114303,0.0633162998128501,0.06331678079937543,0.0,5.515394721457471e-05
1626109274.886004,-0.081243084365446,5.1650861268907825e-05,5.19,3.6,0.5075112581253052,0.01662532053887844,3.9634146690368652,0.091796875,-0.29736328125,0.11809918227807492,0.0013904744080313128,0.5,0.0,-2.027255076750556,0.0,0.0028114042114341245,0.002811391563677192,0.06330728556664864,0.06330790892893638,0.0,1.6955955450678986e-05
1626109274.946004,-0.08777756606250574,4.616386964256486e-05,5.14,3.59,0.5407869219779968,-0.03316333144903183,6.280488014221191,0.14794921875,-0.30322265625,0.11809918227807492,0.0013904744080313128,0.5,0.0,-2.027255076750556,0.0,0.0028114042114341245,0.002811391563677192,0.06330728556664864,0.06330790892893638,0.0,1.6955955450678986e-05
1626109275.0060039,-0.09102376435398014,2.8447187147940978e-05,5.14,3.59,0.5317513346672058,-0.04957686364650726,6.280488014221191,0.14794921875,-0.30322265625,0.1322169280837239,-0.009713975510095119,0.5,0.0,-2.028856946849178,0.0,0.004317610920602617,0.004317555622958712,0.0652154912679402,0.0652163044782648,0.0,-2.9793098874922116e-05
1626109275.0920038,-0.13574633445369932,7.922742596931912e-06,5.09,3.58,0.5030301809310913,-0.03248840570449829,-0.5487805008888245,0.11083984375,-0.1083984375,0.16975205343470476,-0.009904561524861416,0.5,0.0,-2.031293346853289,0.0,0.00281161266616509,0.002811583146100776,0.06328817147811558,0.06328944791082453,0.0,-0.00010870215882638702
1626109275.126004,-0.12268693569002292,-9.320908212138037e-06,5.15,3.56,0.5030301809310913,-0.03248840570449829,1.0365853309631348,-0.2314453125,0.0498046875,0.18335505279815859,-0.009345203434749856,0.5,0.0,-2.0326004518071823,0.0,0.0028115693752253693,0.002811530966273789,0.06329537159458265,0.06329700569105279,0.0,-0.00014181988713476068
1626109275.186004,-0.13676740104388269,-2.5409326032264676e-05,5.15,3.56,0.49485015869140625,0.016725728288292885,1.0365853309631348,-0.2314453125,0.0498046875,0.19503929174119247,-0.012559752390749265,0.5,0.0,-2.03348467524065,0.0,0.0028115324238698466,0.0028114915120533122,0.06328221911465763,0.06328425578546132,0.0,-0.00016741531327381815
1626109275.2460039,-0.1610040996781562,-3.8793564154821904e-05,5.11,3.51,0.49574944376945496,0.01689806394279003,0.12195122241973877,0.1845703125,-0.23095703125,0.19503929174119247,-0.012559752390749265,0.5,0.0,-2.03348467524065,0.0,0.0028115324238698466,0.0028114915120533122,0.06328221911465763,0.06328425578546132,0.0,-0.00016741531327381815
1626109275.3060038,-0.16885699296385268,-4.88263989624559e-05,5.11,3.51,0.5078639388084412,-0.01745961792767048,0.12195122241973877,0.1845703125,-0.23095703125,0.20080586300618025,-0.0019438027317936965,0.5,0.0,-2.0332112573272725,0.0,0.0038448562618583855,0.0038447542737621333,0.0646016256444088,0.06460418379233634,0.0,-0.00017230155975063368
1626109275.3840039,-0.20448659916996403,-5.0590631177690295e-05,5.12,3.47,0.5062692761421204,0.050186123698949814,0.6707317233085632,-0.19189453125,0.06982421875,0.22016439998914644,0.006895890141679301,0.5,0.0,-2.033587245578134,0.0,0.0029243037807702614,0.0029242365687520474,0.06343384299537284,0.06343750003682266,0.0,-0.00017248521033845607
1626109275.426004,-0.19316531215456634,-5.2397778405614095e-05,5.08,3.43,0.5062692761421204,0.050186123698949814,-0.792682945728302,0.26806640625,0.0673828125,0.22692419546637643,0.006542043913508236,0.5,0.0,-2.0322671165080166,0.0,0.00281146775946202,0.0028114017553577115,0.06330045751544353,0.06330473046533278,0.0,-0.00015047857519728534
1626109275.488004,-0.22060562988086307,-5.1383208242470115e-05,5.08,3.43,0.5088254809379578,-1.1341587196511682e-05,-0.792682945728302,0.26806640625,0.0673828125,0.23268657975278875,0.002804935353756697,0.0,0.0,-2.0321741943410494,0.0,0.0028114432216220946,0.002811378840244355,0.06329595960674719,0.06330082195844931,0.0,-0.00013180303639035793
1626109275.5460038,-0.21297864710998415,-4.3334410742885e-05,5.14,3.39,0.4904189109802246,-0.03268837556242943,-2.682926893234253,0.20849609375,0.02490234375,0.23268657975278875,0.002804935353756697,0.0,0.0,-2.0321741943410494,0.0,0.0028114432216220946,0.002811378840244355,0.06329595960674719,0.06330082195844931,0.0,-0.00013180303639035793
1626109275.606004,-0.20942213234712964,-3.669526910294627e-05,5.14,3.39,0.41947436332702637,-0.049005310982465744,-2.682926893234253,0.20849609375,0.02490234375,0.234891050081907,0.0014624962761492788,0.0,0.0,-2.033060670174005,0.0,0.0033803586576974785,0.003380251213825029,0.06403223666754912,0.06403775556501601,0.0,-0.00013246208017860043
1626109275.676004,-0.23726368517503996,-3.7137774036457705e-05,5.16,3.33,0.23668250441551208,-7.290148460015189e-06,8.780488014221191,-0.16357421875,0.138671875,0.24018894204256666,0.00037768798315066616,0.0,0.0,-2.0345491110379044,0.0,0.0027115388165062813,0.002711468372058968,0.06318523866456317,0.06319185688509792,0.0,-0.00015045266224138787
1626109275.726004,-0.2288621424383957,-4.116711321332877e-05,5.19,3.3,0.1311345398426056,0.016332311555743217,0.4268292784690857,0.07177734375,0.169921875,0.23337512630457816,0.0003297404638626475,0.0,0.0,-2.035068319039943,0.0,0.002789655362434111,0.002789574362804236,0.06328829481692398,0.06329546270881276,0.0,-0.00015267982858968652
1626109275.778168,-0.22369553785677193,-4.37646498585165e-05,5.2,3.25,0.1311345398426056,0.016332311555743217,0.4268292784690857,0.07177734375,0.169921875,0.22064612761406602,0.0031253698551596365,0.0,0.0,-2.035199499154406,0.0,0.0028068613307647363,0.00280678884252006,0.06329257113983419,0.06330020188240322,0.0,-0.00014751521767048304
1626109275.8381681,-0.23739251516944565,-4.394992577028193e-05,5.2,3.25,0.04852643609046936,0.016524992883205414,1.402438998222351,-0.00732421875,0.19873046875,0.22064612761406602,0.0031253698551596365,0.0,0.0,-2.035199499154406,0.0,0.0028068613307647363,0.00280678884252006,0.06329257113983419,0.06330020188240322,0.0,-0.00014751521767048304
1626109275.898168,-0.2241110206530546,-4.118336787300971e-05,5.21,3.22,1.1962341659454978e-06,-1.1127759535156656e-05,1.402438998222351,-0.00732421875,0.19873046875,0.1982745602985244,0.004645784846500966,0.0,0.0,-2.0349558896310866,0.0,0.004079337846837421,0.004079189172061079,0.06490712539892633,0.06491528274981635,0.0,-0.00014026733740641034
1626109275.980168,-0.20273473914140683,-3.71697376111242e-05,5.22,3.19,1.1962341659454978e-06,-1.1127759535156656e-05,1.097561001777649,-0.01318359375,-0.0126953125,0.1593019900580086,0.00575113766416387,0.0,0.0,-2.0343637724632564,0.0,0.00315131062803896,0.003151245330933979,0.06372919019014736,0.06373768341701798,0.0,-0.00012596012823008873
1626109276.018168,-0.2015905473926312,-3.383775100814664e-05,5.22,3.19,1.1889842426171526e-06,-1.106031868403079e-05,1.6463414430618286,-0.00830078125,-0.0087890625,0.1402694463716266,0.005428752020515974,0.0,0.0,-2.0343129755118112,0.0,0.002811519402731817,0.0028114742818007724,0.06329740692881246,0.06330585129715302,0.0,-0.00011736634536632987
1626109276.084168,-0.1602635776235272,-2.99023044714831e-05,5.2,3.17,1.1889842426171526e-06,-1.106031868403079e-05,1.6463414430618286,-0.00830078125,-0.0087890625,0.12230239599056994,0.003838242605040577,0.0,0.0,-2.0343297870044528,0.0,0.0028115625168546486,0.0028115272212365233,0.06328224805371917,0.06329050424281212,0.0,-0.00010913579192802885
1626109276.138168,-0.1631364446608246,-2.5798724151376368e-05,5.2,3.17,1.1962341659454978e-06,-1.1127759535156656e-05,1.402438998222351,0.00439453125,0.001953125,0.12230239599056994,0.003838242605040577,0.0,0.0,-2.0343297870044528,0.0,0.0028115625168546486,0.0028115272212365233,0.06328224805371917,0.06329050424281212,0.0,-0.00010913579192802885
1626109276.198168,-0.13961128875951465,-2.188638932095935e-05,5.22,3.17,1.203573106067779e-06,-1.1196028026461136e-05,1.402438998222351,0.00439453125,0.001953125,0.10481340676648787,0.0032547093301378265,0.0,0.0,-2.0342943947968126,1.0,0.003611560973975666,0.0036115144241276004,0.06430756404349519,0.06431558874696523,0.0,-0.00010131240583490238
1626109276.272168,-0.10630162310213148,-1.8181963975003693e-05,5.2,3.15,0.003326431615278125,0.2949197292327881,1.3414634466171265,0.01171875,0.00341796875,0.08015058936265212,0.062294668415494504,0.0,0.0,-2.03226965927321,1.0,0.002811495693035196,0.0028114745788021234,0.06328864857371427,0.06329576726867207,0.0,-7.725260317734367e-05
1626109276.318168,-0.10762592581827159,-1.2915308573703106e-05,5.2,3.15,0.007017507217824459,0.44517889618873596,-19.024391174316406,-0.01904296875,-0.06884765625,0.06937897509023011,0.11318252429821506,0.0,0.0,-2.020346480387272,1.0,0.0028113871103067323,0.002811369322115885,0.06330267237103838,0.06330930771309384,0.0,-8.641646226451494e-05
1626109276.378168,-0.089424284320787,-8.026688117038198e-06,5.21,3.14,0.007017507217824459,0.44517889618873596,-19.024391174316406,-0.01904296875,-0.06884765625,0.05990404608781325,0.1580202952838123,0.0,0.0,-2.000130300866033,1.0,0.0028113663416944904,0.002811351461087553,0.06329574744660844,0.06330187550983071,0.0,-0.00012118056003918875
1626109276.438168,-0.08234507855230055,-1.0893818156774269e-05,5.21,3.14,0.00831326749175787,0.7297368049621582,-40.30487823486328,0.0439453125,0.052734375,0.05990404608781325,0.1580202952838123,0.0,0.0,-2.000130300866033,1.0,0.0028113663416944904,0.002811351461087553,0.06329574744660844,0.06330187550983071,0.0,-0.00012118056003918875
1626109276.498168,-0.06843479582072885,-2.2739050549271407e-05,5.21,3.14,0.006258897017687559,0.8955870866775513,-40.30487823486328,0.0439453125,0.052734375,0.050177855383640384,0.19928933072190336,0.0,0.0,-1.9626978939817321,1.0,0.004317325127081127,0.004317293261622111,0.06520632714790546,0.06521202771512864,0.0,-0.00018326838840917583
1626109276.584168,-0.051517306532626234,-4.3589818587246414e-05,5.2,3.14,0.00835270807147026,0.9064538478851318,-49.69512176513672,-0.0146484375,-0.05908203125,0.037897801130036816,0.18667739962967522,0.0,0.0,-1.8771811260429558,1.0,0.002811394982939244,0.0028113833649453792,0.06328880894554155,0.06329346587614093,0.0,-0.00036405420294981434
1626109276.618168,-0.05172274796138243,-7.207213967793412e-05,5.2,3.14,0.012281118892133236,0.9072757959365845,-49.8780517578125,-0.0498046875,0.0244140625,0.03225828710420644,0.18002427335918772,0.0,0.0,-1.825222254123324,1.0,0.0028112507263722553,0.0028112397724060854,0.06330420217279407,0.06330841413293475,0.0,-0.0004641038392214087
1626109276.678168,-0.04341743480136439,-0.00010470586502974058,5.2,3.12,0.012351582758128643,0.9122809171676636,-49.8780517578125,-0.0498046875,0.0244140625,0.02729531120981305,0.1749872265307853,0.0,0.0,-1.771902725940335,1.0,0.0028111031961391315,0.0028110931951192053,0.06330198393921788,0.06330577703702604,0.0,-0.0005620277921257443
1626109276.738168,-0.0391357423627099,-0.00013727232055552784,5.2,3.12,0.012351582758128643,0.9122809171676636,-51.76829528808594,0.14697265625,-0.00048828125,0.02729531120981305,0.1749872265307853,0.0,0.0,-1.771902725940335,1.0,0.0028111031961391315,0.0028110931951192053,0.06330198393921788,0.06330577703702604,0.0,-0.0005620277921257443
1626109276.798168,-0.03228299138921576,-0.0001684622291112936,5.2,3.12,0.010868099518120289,0.9507689476013184,-51.76829528808594,0.14697265625,-0.00048828125,0.022482305552592206,0.1679427318000477,0.0,0.0,-1.7145193111601935,1.0,0.0038436920073034735,0.003843674876431832,0.06463360379335867,0.06463703437533452,0.0,-0.0006561930859174973
1626109276.876168,-0.022894402216093082,-0.00019633734777332686,5.18,3.13,0.012991304509341717,0.9723866581916809,-52.317073822021484,-0.02587890625,-0.05712890625,0.015755978684918792,0.16675646336816685,0.0,0.0,-1.6044207216979238,1.0,0.0029236627506276525,0.002923654382055084,0.06349070429268237,0.06349342387014673,0.0,-0.0007919992709820581
1626109276.918168,-0.023371441775510066,-0.00021755070609093168,5.18,3.13,0.010547120124101639,0.9284602403640747,-49.93902587890625,0.05224609375,0.07373046875,0.012874936549983935,0.1667870833912196,0.0,0.0,-1.54661928144451,1.0,0.0028108908942348766,0.0028108839462062914,0.06336963438027648,0.06337205180975759,0.0,-0.0008486157969466296
1626109276.980168,-0.015787555270966952,-0.00023551550393712748,5.18,3.13,0.010901367291808128,0.9568732976913452,-49.93902587890625,0.05224609375,0.07373046875,0.010384111186224083,0.1672274769457452,0.0,0.0,-1.4895673454035492,1.0,0.002810849336831948,0.0028108432214495683,0.06337768307489676,0.0633798265431122,0.0,-0.0008903589628410814
1626109277.038168,-0.016479887596207964,-0.000250218887419153,5.16,3.1,0.010901367291808128,0.9568732976913452,-49.93902587890625,0.0625,-0.17626953125,0.010384111186224083,0.1672274769457452,0.0,0.0,-1.4895673454035492,1.0,0.002810849336831948,0.0028108432214495683,0.06337768307489676,0.0633798265431122,0.0,-0.0008903589628410814
1626109277.0981681,-0.012916899410213773,-0.000259212677565445,5.14,3.0,0.013093031942844391,0.97264564037323,-49.93902587890625,0.0625,-0.17626953125,0.008093934891293519,0.16663297494852633,0.0,0.0,-1.430627153174323,1.0,0.0033793672580602484,0.0033793596936934093,0.06412588565628217,0.06412778637424191,0.0,-0.0009318559891571774
1626109277.168168,-0.00817569173063035,-0.0002670330080951371,5.1,2.97,0.010900958441197872,0.9621568918228149,-52.621952056884766,0.03759765625,-0.0283203125,0.004499972916459866,0.17249928705534295,0.0,0.0,-1.3182360676486549,1.0,0.0028109939815985914,0.0028109900288532455,0.06341719178612264,0.0634186615367845,0.0,-0.0009935927145973199
1626109277.218168,-0.008641747764934196,-0.00027435317793350064,5.1,2.97,0.009328514337539673,0.8244539499282837,-55.4878044128418,-0.0341796875,0.01171875,0.003128362379749709,0.1753794211664992,0.0,0.0,-1.260940561053542,1.0,0.002811004818849695,0.0028110015000297594,0.0634358824594758,0.06343717144138863,0.0,-0.0010019600234859787
1626109277.278168,-0.006351698414687211,-0.00027774030802902157,5.1,2.99,0.004795651417225599,0.24768225848674774,-55.4878044128418,-0.0341796875,0.01171875,0.002037269908892656,0.1783824650708087,0.0,0.0,-1.2054668367850516,1.0,0.0028110077566338037,0.0028110050226327742,0.06343205454134644,0.06343318137887408,0.0,-0.0009944657892933155
1626109277.3381681,-0.004905201567379792,-0.00027436234724154167,5.1,2.99,0.004795651417225599,0.24768225848674774,-11.219511985778809,0.04052734375,0.1044921875,0.002037269908892656,0.1783824650708087,0.0,0.0,-1.2054668367850516,1.0,0.0028110077566338037,0.0028110050226327742,0.06343205454134644,0.06343318137887408,0.0,-0.0009944657892933155
1626109277.398168,-0.0033419066243852553,-0.0002654085941713089,5.09,2.99,0.00031184626277536154,-0.033259060233831406,-11.219511985778809,0.04052734375,0.1044921875,0.001255745314240258,0.1725953896160737,0.0,0.0,-1.162905778985478,1.0,0.00407931250989332,0.004079308235349633,0.06505272254093131,0.06505370684749695,0.0,-0.0009664743719417662
1626109277.480168,-0.0012839932615052625,-0.0002471473951254187,5.11,3.01,1.988253870877088e-06,1.8495386029826477e-05,2.4390244483947754,0.009765625,0.0283203125,0.0006632899090466075,0.18291280342641175,0.0,0.0,-1.143431901253313,1.0,0.0028115461157140875,0.002811544643438445,0.06341564591954885,0.06341638539733326,0.0,-0.0008507819422945199
1626109277.518168,-0.0013503240946510311,-0.00022016563625578122,5.11,3.01,0.001973072998225689,0.16485626995563507,0.792682945728302,0.0087890625,0.0166015625,0.000454935671086998,0.22430385177711692,0.0,0.0,-1.1394057066262688,1.0,0.0028116763643938223,0.0028116751306564306,0.06341377252550442,0.06341441111574896,0.0,-0.000800131012865152
1626109277.578168,-0.00099091955454313,-0.00019602543691811332,5.1,3.03,0.006391074974089861,0.5606913566589355,0.792682945728302,0.0087890625,0.0166015625,0.00030369185583740483,0.2263813921279497,0.0,0.0,-1.1359290641964057,1.0,0.0028117095380531874,0.002811708497356757,0.0633902701702678,0.06339081957990228,0.0,-0.0007544246332682528
1626109277.638168,-0.0007252546319251256,-0.00017306940412393913,5.1,3.03,0.006391074974089861,0.5606913566589355,-28.719512939453125,-0.05615234375,-0.00244140625,0.00030369185583740483,0.2263813921279497,0.0,0.0,-1.1359290641964057,1.0,0.0028117095380531874,0.002811708497356757,0.0633902701702678,0.06339081957990228,0.0,-0.0007544246332682528
1626109277.698168,-0.00048683499932371943,-0.00015207441174527756,5.1,3.04,0.007635150570422411,0.8408088684082031,-28.719512939453125,-0.05615234375,-0.00244140625,0.00011171757181758626,0.2460813950358418,0.0,0.0,-1.11587496366938,1.0,0.003611834454449679,0.0036118330631312225,0.0644070719126397,0.06440754198859759,0.0,-0.0007150335725349558
1626109277.772168,-0.00011336110449093708,-0.00013328255856693224,5.09,3.04,0.006987621542066336,0.9621782302856445,-51.158538818359375,-0.02392578125,-0.16259765625,-0.0007271465545905978,0.26577738297585074,0.0,0.0,-1.04016873283147,1.0,0.002811600417858988,0.002811599824014758,0.06337159898059268,0.06337194163642007,0.0,-0.0006675232643679302
1626109277.818168,-0.00023059791224150367,-0.00011838222555623059,5.09,3.04,0.014776075258851051,0.9557841420173645,-53.658538818359375,0.00048828125,0.04541015625,-0.0012127610269221942,0.2545404971014115,0.0,0.0,-0.9888397186400822,1.0,0.0028113791246570825,0.0028113786671415475,0.0633821414036186,0.06338243197723081,0.0,-0.0006592202571250819
1626109277.878168,1.2422009877018553e-05,-0.00011116750342329378,5.08,3.04,0.012682246044278145,0.9397042989730835,-53.84146499633789,-0.0654296875,0.072265625,-0.0018025400594563284,0.24533918583881198,0.0,0.0,-0.9347860618344206,1.0,0.0028112129007836456,0.0028112125687168336,0.0633760248850659,0.06337627019828791,0.0,-0.0006685527577004549
1626109277.938168,0.000532436300192711,-0.00010570390949040568,5.08,3.04,0.014813276939094067,0.9560406804084778,-53.84146499633789,-0.0654296875,0.072265625,-0.0018025400594563284,0.24533918583881198,0.0,0.0,-0.9347860618344206,1.0,0.0028112129007836456,0.0028112125687168336,0.0633760248850659,0.06337627019828791,0.0,-0.0006685527577004549
1626109277.998168,0.0009189824057498431,-0.00010679892101435596,5.08,3.03,0.014813276939094067,0.9560406804084778,-53.84146499633789,-0.0654296875,0.072265625,-0.0023944606050410565,0.23591118227630745,0.0,0.0,-0.8788019972542337,1.0,0.0031507724237019915,0.003150772158531852,0.06382356948828019,0.06382377515191529,0.0,-0.0006857878279272345
1626109278.064168,0.002408914191270743,-0.00011046118849566292,5.09,2.98,0.006979777943342924,0.9565905928611755,-56.40243911743164,-0.04248046875,-0.0341796875,-0.003414970864577708,0.22577113085110587,0.0,0.0,-0.7684239985987604,0.0,0.00281104164063057,0.002811041572539083,0.06340068777541044,0.06340083169502099,0.0,-0.0007083037021269358
1626109278.118168,0.002137785051523278,-0.00011344590980281954,5.09,2.98,0.012649167329072952,0.9394093155860901,-59.69512176513672,-0.05029296875,0.03564453125,-0.003717185373948119,0.22160491602104646,0.0,0.0,-0.7114399029661668,0.0,0.00281942667442307,0.0028194266615758044,0.06342672357250896,0.06342684284568223,0.0,-0.0007044926915310762
1626109278.178168,0.002584933320555312,-0.00011387573930867038,5.08,3.06,0.003108908422291279,0.4425034821033478,-59.69512176513672,-0.05029296875,0.03564453125,-0.004023205283911695,0.21905192371107501,0.0,0.0,-0.6537847543543788,0.0,0.002812852537409446,0.002812852565379927,0.06341318431946837,0.06341328290290885,0.0,-0.0007067218559316058
1626109278.2388499,0.0032276553469920543,-0.00010987477604178396,5.08,3.06,0.005810055881738663,0.01645250804722309,-28.780488967895508,0.07275390625,0.09130859375,-0.004023205283911695,0.21905192371107501,0.0,0.0,-0.6537847543543788,0.0,0.002812852537409446,0.002812852565379927,0.06341318431946837,0.06341328290290885,0.0,-0.0007067218559316058
1626109278.2988498,0.003397983542878906,-0.00010823486050667661,5.07,3.11,0.005810055881738663,0.01645250804722309,-28.780488967895508,0.07275390625,0.09130859375,-0.003946579573279872,0.2105913234859577,0.0,0.0,-0.6032860079783329,0.0,0.0038442788094411643,0.003844278939239508,0.0647380236220392,0.06473810370541598,0.0,-0.0006794238444024846
1626109278.37685,0.004018919675169548,-9.51876439903209e-05,5.06,3.13,1.9914973563572858e-06,1.852555578807369e-05,1.5243902206420898,0.01513671875,0.0126953125,-0.0033837478408511087,0.12051239182272008,0.0,0.0,-0.5764139630214765,0.0,0.002924128060490181,0.0029241281438581864,0.06356965485120034,0.06356970973117461,0.0,-0.0005854203973741016
1626109278.41885,0.003969230917800511,-7.498396613124494e-05,5.06,3.13,1.979427906917408e-06,1.8413280486129224e-05,1.5243902206420898,0.01513671875,0.0126953125,-0.0030407511828869295,0.11317704798044202,0.0,0.0,-0.5733246097786332,0.0,0.0028114695175454627,0.002811469587245402,0.06342812103594589,0.06342816627037469,0.0,-0.0005456313175638491
1626109278.48085,0.003390433589858697,-5.732441060753291e-05,5.06,3.16,2.0037150534335524e-06,1.863920988398604e-05,1.5243902206420898,0.01513671875,0.0126953125,-0.002685727562156421,0.10002542749123021,0.0,0.0,-0.5722688701485237,0.0,0.0028116450245322983,0.002811645083921405,0.06340591727678972,0.06340595459102523,0.0,-0.0005089807268977989
1626109278.5388498,0.0034376973078793626,-4.145428249458221e-05,5.06,3.16,2.0037150534335524e-06,1.863920988398604e-05,1.2195122241973877,-0.0029296875,0.01171875,-0.002685727562156421,0.10002542749123021,0.0,0.0,-0.5722688701485237,1.0,0.0028116450245322983,0.002811645083921405,0.06340591727678972,0.06340595459102523,0.0,-0.0005089807268977989
1626109278.59885,0.003025964520918482,-2.7043260890428823e-05,5.05,3.17,2.0037150534335524e-06,1.863920988398604e-05,1.2195122241973877,-0.0029296875,0.01171875,-0.0020485071426022566,0.18137144245070932,0.0,0.0,-0.5692056017479353,1.0,0.002811720182932153,0.002811720224933669,0.06338892889129022,0.06338895493659631,0.0,-0.00044329414704176386
1626109278.66885,0.002350306701843512,-1.3909820162579087e-05,5.03,3.18,0.002366135362535715,0.3769323527812958,1.2804877758026123,-0.0205078125,0.009765625,-0.0018118255165413238,0.20518390746419407,0.0,0.0,-0.5674389893259143,1.0,0.0028116579643374905,0.0028116579989315594,0.06337908307594678,0.06337910532932711,0.0,-0.00041314122173415947
1626109278.71885,0.002386273639840332,-1.8706128542847214e-06,5.03,3.18,0.008319614455103874,0.7302840352058411,-27.98780632019043,-0.09326171875,0.0576171875,-0.001632526173683454,0.24734304820008182,0.0,0.0,-0.5577945146008363,1.0,0.002811606911497724,0.00281160694088928,0.06338082679304825,0.06338084624779866,0.0,-0.00038426029206668625
1626109278.7788498,0.0019799262710164,9.31560465325045e-06,5.03,3.2,0.01020557340234518,0.8958619832992554,-27.98780632019043,-0.09326171875,0.0576171875,-0.0017407570212520183,0.23869263744251948,0.0,0.0,-0.5334345699675713,0.0,0.0028115857484916395,0.002811585773910185,0.06336141473848764,0.06336143222156854,0.0,-0.0003623366736516017
1626109278.8388498,0.0018377698545876064,1.97571072309933e-05,5.03,3.2,0.005638833157718182,0.49476638436317444,-48.53658676147461,0.00244140625,0.0322265625,-0.0019573045279836186,0.22175118408317082,0.0,0.0,-0.4884404955452784,0.0,0.0040801614777897285,0.004080161533920454,0.06496819271742832,0.06496820943607141,0.0,-0.0003528322748640967
1626109278.89885,0.0014954393476628515,2.734303381559697e-05,5.02,3.16,0.005638429895043373,0.016509706154465675,-7.865853786468506,0.03564453125,0.0556640625,-0.002261356427869431,0.21624499181859214,0.0,0.0,-0.4529357121551486,0.0,0.00281154354925083,0.0028115435760222157,0.06334516990142773,0.0633451854597445,0.0,-0.0003475509738957253
1626109278.98085,0.0020013340254151795,2.990479138122492e-05,5.0,3.14,0.001759537379257381,-0.01636778935790062,-7.865853786468506,0.03564453125,0.0556640625,-0.0021144102946751174,0.1919208309416545,0.0,0.0,-0.422243759824016,0.0,0.0028114853895806332,0.0028114854213968465,0.06333643837654979,0.06333645399339223,0.0,-0.00029762134337937325
1626109279.0188498,0.0018185235490040738,3.138379434557923e-05,5.0,3.14,2.09884024116036e-06,1.9524093659128994e-05,0.7317073345184326,0.0009765625,0.03369140625,-0.0019212287450243754,0.16282360478506183,0.0,0.0,-0.4196349939814223,0.0,0.0028115034785171572,0.0028115035099938283,0.06332070210449128,0.0633207182499142,0.0,-0.00027283431396661715
1626109279.0788498,0.002120328654533375,3.972992709842849e-05,4.99,3.14,2.09884024116036e-06,1.9524093659128994e-05,1.3414634466171265,-0.0068359375,0.017578125,-0.0019212287450243754,0.16282360478506183,0.0,0.0,-0.4196349939814223,0.0,0.0028115034785171572,0.0028115035099938283,0.06332070210449128,0.0633207182499142,0.0,-0.00027283431396661715
1626109279.13885,0.002220684729840607,4.814812474161907e-05,4.99,3.14,2.0733996279886924e-06,1.9287437680759467e-05,1.3414634466171265,-0.0068359375,0.017578125,-0.0016824623924445118,0.13622516764550824,0.0,0.0,-0.4171936520925592,0.0,0.0036115640170001594,0.0036115640693790215,0.06434383171850087,0.06434384934003155,0.0,-0.0002491453968251161
1626109279.19885,0.002076015450988484,5.619004826656928e-05,4.98,3.13,2.0860422864643624e-06,1.9405044440645725e-05,1.3414634466171265,-0.0068359375,0.017578125,-0.00149931178244075,0.12873112447187848,0.0,0.0,-0.41892820855581286,0.0,0.0028115749056099554,0.00281157493712638,0.06331542874540518,0.06331544656754014,0.0,-0.00022885217580923347
1626109279.2728498,0.0017063367476690752,6.335208315894532e-05,4.97,3.12,2.09884024116036e-06,1.9524093659128994e-05,1.3414634466171265,-0.0087890625,0.01123046875,-0.0011388374826996686,0.049440528335016,0.0,0.0,-0.42220612141943914,0.0,0.002811428283779551,0.0028114283156288637,0.06332894385681205,0.06332896378774283,0.0,-0.00018963580903272727
1626109279.3188498,0.0017212850729246818,6.975646106935117e-05,4.97,3.12,2.09884024116036e-06,1.9524093659128994e-05,1.402438998222351,-0.00634765625,0.00830078125,0.02230685766587087,0.0268364643940863,0.5,0.0,-0.42321229518653725,0.0,0.0028114157529767186,0.0028114158177800263,0.06331872680394289,0.06331874790620366,0.0,-0.0001708803818745318
1626109279.37885,0.0014494168224827833,7.566470076119427e-05,4.97,3.12,0.004306569695472717,-0.03301852196455002,2.1341464519500732,-0.0009765625,-0.001953125,0.02230685766587087,0.0268364643940863,0.5,0.0,-0.42321229518653725,0.0,0.0028114157529767186,0.0028114158177800263,0.06331872680394289,0.06331874790620366,0.0,-0.0001708803818745318
1626109279.43885,0.0013425526643839152,8.102075622969187e-05,4.97,3.12,0.05499982088804245,-0.1814395785331726,2.1341464519500732,-0.0009765625,-0.001953125,0.04605626411493459,0.01505173859300224,0.5,0.0,-0.424074227276673,0.0,0.003151242991980071,0.003151244768651038,0.06375961869532955,0.06375964591235217,0.0,-0.0001506901490254961
1626109279.4988499,0.38730592680372905,8.602856846981032e-05,4.97,3.13,0.1287568062543869,-0.050157830119132996,2.1341464519500732,-0.0009765625,-0.001953125,0.06428470341356372,0.013924355486152963,0.5,0.0,-0.4299371159368423,0.0,0.0028114931437708455,0.002811497047416278,0.06332532412894039,0.0633253725615442,0.0,-0.00013582589230244643
1626109279.5648499,0.36490654656548427,9.101846159362589e-05,4.96,3.12,0.23447467386722565,0.016442839056253433,-1.8902438879013062,-0.06982421875,0.0322265625,0.08484447662735363,0.004397942061582238,0.5,0.0,-0.4365769202588157,0.0,0.0028114819426571856,0.0028114945363666255,0.06332607975162245,0.06332627749166815,0.0,-0.000178867982410897
1626109279.61885,0.36264705664525876,9.434041877973242e-05,4.96,3.12,0.3424166738986969,0.04960081726312637,-1.8902438879013062,-0.06982421875,0.0322265625,0.09030612351542561,0.015018353793177406,0.5,0.0,-0.43523078558512246,0.0,0.0028114974450920626,0.002811507693431369,0.06331041967270362,0.06331073263326908,0.0,-0.00019377439990845888
1626109279.67885,0.33479436138102747,8.77286850403099e-05,4.94,3.11,0.4404645562171936,0.04984072595834732,2.195122003555298,0.11669921875,-0.71435546875,0.09030612351542561,0.015018353793177406,0.5,0.0,-0.43523078558512246,0.0,0.0028114974450920626,0.002811507693431369,0.06331041967270362,0.06331073263326908,0.0,-0.00019377439990845888
1626109279.7388499,-0.08386650330747648,7.561000609409795e-05,4.94,3.11,0.5149441957473755,0.04960814490914345,2.195122003555298,0.11669921875,-0.71435546875,0.0997279083983449,0.03075219838680409,0.5,0.0,-0.4320890354502188,0.0,0.0038448149478536287,0.003844839472133849,0.06462653976977713,0.06462698883548387,0.0,-0.00016041586874468658
1626109279.7988498,-0.0781166237691514,7.067123095895694e-05,4.92,3.13,0.5421167612075806,0.016195038333535194,4.390244007110596,-0.19287109375,0.06982421875,0.11766919023448545,0.029479738078145693,0.5,0.0,-0.430447863291585,0.0,0.0028115741912899256,0.002811588331862455,0.06330185724339336,0.06330244025544775,0.0,-0.00010642370072939302
1626109279.87685,-0.10155589623637135,8.38389879738328e-05,4.9,3.19,0.5327567458152771,0.03269866481423378,3.2317073345184326,-0.1357421875,0.13671875,0.15401450524025298,0.029444585919845202,0.5,0.0,-0.42697639612104066,0.0,0.0028114295220974753,0.0028114549499014202,0.06331621956428274,0.06331719937842467,0.0,1.5712429651599046e-05
1626109279.91885,-0.09160756177368794,0.00010567387302319784,4.9,3.19,0.5056934356689453,-0.00028530153213068843,3.2317073345184326,-0.1357421875,0.13671875,0.17013882375973624,0.008278864373897682,0.5,0.0,-0.42670835786844835,0.0,0.002811504214566892,0.0028115359777505,0.06330210600544584,0.06330335229026259,0.0,5.1597678316546704e-05
1626109279.98085,-0.13602890957188793,0.0001316194822734624,4.87,3.23,0.49964454770088196,0.016368595883250237,-0.7317073345184326,-0.4267578125,0.16650390625,0.17013882375973624,0.008278864373897682,0.5,0.0,-0.42670835786844835,0.0,0.002811504214566892,0.0028115359777505,0.06330210600544584,0.06330335229026259,0.0,5.1597678316546704e-05
1626109280.0388498,-0.12614579477358207,0.00015152659133461054,4.87,3.23,0.4948790371417999,0.016994360834360123,-0.7317073345184326,-0.4267578125,0.16650390625,0.1817019349746525,0.012515387921438942,0.5,0.0,-0.4259414666643677,0.0,0.003380363697921221,0.0033804259373239765,0.0640337606319767,0.06403537545926863,0.0,7.962713513871028e-05
1626109280.09885,-0.14075490426031234,0.000164105732510543,4.84,3.25,0.5027658939361572,0.016990454867482185,4.45121955871582,0.091796875,-0.1728515625,0.19480808157186258,0.011851280100874816,0.5,0.0,-0.42618384638326656,0.0,0.002811530825772889,0.002811580230054967,0.06330346297567903,0.06330549264191825,0.0,7.696858614177418e-05
1626109280.16885,-0.18353730436640128,0.0001725166478776316,4.81,3.25,0.5018101334571838,-0.0002491658378858119,2.012195110321045,-0.203125,-0.07763671875,0.2130124609380834,0.015029536705728779,0.5,0.0,-0.42531778859217917,0.0,0.0028114429539719465,0.002811504623609899,0.0633121524921307,0.06331520889362459,0.0,7.885934492551389e-05
1626109280.21885,-0.17355132476363727,0.00017048438757223336,4.81,3.25,0.495747834444046,0.016882972791790962,2.012195110321045,-0.203125,-0.07763671875,0.22041289595548846,0.01262806304716962,0.5,0.0,-0.4247316771110345,0.0,0.002811444965963031,0.002811506196935376,0.06329997115571953,0.06330356978029428,0.0,8.276530264483901e-05
1626109280.2788498,-0.176442461764861,0.00016947490192057205,4.76,3.21,0.5036221146583557,0.016606636345386505,4.45121955871582,-0.533203125,0.1611328125,0.22041289595548846,0.01262806304716962,0.5,0.0,-0.4247316771110345,0.0,0.002811444965963031,0.002811506196935376,0.06329997115571953,0.06330356978029428,0.0,8.276530264483901e-05
1626109280.3388498,-0.19690892358024611,0.00016746317970968666,4.76,3.21,0.5035226941108704,0.01688670925796032,4.45121955871582,-0.533203125,0.1611328125,0.22184110580521516,0.011954404383876502,0.5,0.0,-0.42365837616979135,0.0,0.004080138415807829,0.00408030496902403,0.06491212424285632,0.06491638656764995,0.0,9.806615498508303e-05
1626109280.39885,-0.19757839132199426,0.00016688512509207057,4.72,3.18,0.4860931932926178,-5.373784915718716e-06,5.243902683258057,-0.11669921875,0.06640625,0.23257633303227854,0.011492028364041415,0.5,0.0,-0.4233947232327278,0.0,0.0028115556350397876,0.002811631785168558,0.06329224108565451,0.06329704368940837,0.0,0.00010725865136410333
1626109280.48085,-0.22683141381049005,0.00016899433502720374,4.67,3.18,0.4037477672100067,-2.0612695152522065e-05,-2.6219513416290283,-0.20556640625,0.353515625,0.23906978920926955,0.002274486420318533,0.5,0.0,-0.42408413777867,0.0,0.0028115619011807548,0.0028116505005076477,0.06328437347935029,0.06329043507685428,0.0,0.0001076676361847026
1626109280.5188498,-0.21480991068790672,0.00017136361729442625,4.67,3.18,0.3236079514026642,-0.016884179785847664,-2.6219513416290283,-0.20556640625,0.353515625,0.23646925936657712,0.00780888320201183,0.5,0.0,-0.424063635782683,0.0,0.0028115191401413856,0.0028116028897926856,0.06327109948718873,0.06327776096497795,0.0,0.00010533872756604776
1626109280.5788498,-0.2150042563840053,0.00016994952014309103,4.63,3.14,0.21949535608291626,-1.4861935596854892e-05,1.7073171138763428,-0.1416015625,0.08056640625,0.23646925936657712,0.00780888320201183,0.5,0.0,-0.424063635782683,0.0,0.0028115191401413856,0.0028116028897926856,0.06327109948718873,0.06327776096497795,0.0,0.00010533872756604776
1626109280.63885,-0.23169598770065047,0.00016630498734376194,4.63,3.14,0.11793261021375656,0.03287998214364052,1.7073171138763428,-0.1416015625,0.08056640625,0.2255971039776768,-0.0024336739906302557,0.5,0.0,-0.4246206189887285,0.0,0.0035933499152677895,0.0035934921564202294,0.0642763606779456,0.06428366685842515,0.0,0.00010193787590003827
1626109280.69885,-0.22766821700662798,0.00016240708763990642,4.59,3.1,0.02962871454656124,-0.016074348241090775,0.792682945728302,-0.0068359375,0.14892578125,0.21528282459647033,-0.0023078810428284837,0.5,0.0,-0.42443077595974804,0.0,0.0028076976362855924,0.0028077828795292255,0.06326887584286926,0.0632766222182313,0.0,9.75176939759573e-05
1626109280.771427,-0.22880029134584773,0.0001573078322431044,4.57,3.06,2.0860422864643624e-06,1.9405044440645725e-05,0.9756097793579102,-0.01513671875,0.03466796875,0.1756384362679531,0.0016043730802057497,0.5,0.0,-0.42461747182538134,0.0,0.0028111946825363212,0.0028112615748365427,0.06329404865523244,0.06330247300017242,0.0,0.00010379471333039828
1626109280.817427,-0.22557389574620287,0.0001530468492185322,4.57,3.06,2.0860422864643624e-06,1.9405044440645725e-05,0.9756097793579102,-0.01513671875,0.03466796875,0.1547416927974072,-0.000702076323004741,0.5,0.0,-0.4247918011129339,0.0,0.002811405861222723,0.0028114607648501762,0.06328562024659207,0.06329411624125827,0.0,0.00010590105270237645
1626109280.877427,-0.20483835491945157,0.00015023386886368976,4.55,3.05,2.09884024116036e-06,1.9524093659128994e-05,1.402438998222351,-0.0107421875,0.0009765625,0.1547416927974072,-0.000702076323004741,0.5,0.0,-0.4247918011129339,0.0,0.002811405861222723,0.0028114607648501762,0.06328562024659207,0.06329411624125827,0.0,0.00010590105270237645
1626109280.937427,-0.2002944995272909,0.0001478267450537916,4.55,3.05,2.0860422864643624e-06,1.9405044440645725e-05,1.402438998222351,-0.0107421875,0.0009765625,0.13444357408841034,0.0005571033565312819,0.5,0.0,-0.42480264541111745,0.0,0.0031511971704293084,0.0031512534333150532,0.06372941316510235,0.06373786490068038,0.0,0.00010909543862679358
1626109280.997427,-0.1756310200083788,0.0001448949146509039,4.52,3.04,2.0860422864643624e-06,1.9405044440645725e-05,1.2804877758026123,-0.01220703125,0.0185546875,0.1178080192684469,0.0005250732021466861,0.5,0.0,-0.42481638282185086,0.0,0.0028114461423118,0.00281148496796487,0.06329842477654671,0.06330663207239018,0.0,0.0001097308498223841
1626109281.063427,-0.13525511075754057,0.00014209868974195545,4.51,3.01,0.0018249405547976494,-0.016976190730929375,1.2804877758026123,0.00341796875,0.02294921875,0.08888906926130159,-0.052609384402895885,0.0,0.0,-0.42620638429797086,-1.0,0.00281143405894992,0.0028114604925482825,0.06330525294666103,0.063312710390297,0.0,0.00010420230363600351
1626109281.117427,-0.13789049223905014,0.00013913595312170887,4.51,3.0,0.0018249405547976494,-0.016976190730929375,1.2804877758026123,0.00341796875,0.02294921875,0.07714122478815752,-0.07309339833055344,0.0,0.0,-0.4269277520418987,-1.0,0.0028114527314327294,0.002811473951228555,0.06329226366606959,0.06329924626476081,0.0,9.951768575966229e-05
1626109281.177427,-0.11499794508870656,0.000136281344986916,4.51,3.0,0.0011645962949842215,-0.4122089445590973,15.853658676147461,-0.0166015625,0.193359375,0.07714122478815752,-0.07309339833055344,0.0,0.0,-0.4269277520418987,-1.0,0.0028114527314327294,0.002811473951228555,0.06329226366606959,0.06329924626476081,0.0,9.951768575966229e-05
1626109281.237427,-0.10512732907768216,0.0001305164019401129,4.5,3.0,0.013128513470292091,-0.46125489473342896,15.853658676147461,-0.0166015625,0.193359375,0.06558082701707457,-0.10399435617599082,0.0,0.0,-0.43997119676106655,-1.0,0.00384473052819875,0.0038447634657993853,0.0646108144111996,0.0646173648439895,0.0,0.00012293908151109922
1626109281.297427,-0.08824925810516514,0.00012530276455824488,4.5,3.0,0.013886839151382446,-0.7046467065811157,34.20731735229492,-0.044921875,0.09619140625,0.0582780587810953,-0.13844395884895971,0.0,0.0,-0.45758482377075005,-1.0,0.0028115305251341215,0.002811546301960688,0.06328846005224273,0.06329443941918021,0.0,0.00014381823346646552
1626109281.375427,-0.0667829222834747,0.00012953968473257735,4.51,3.01,0.008092550560832024,-0.8791362047195435,48.10975646972656,-0.04638671875,0.01123046875,0.04502174582903016,-0.17705321744447886,0.0,0.0,-0.5289652535666842,-1.0,0.0028114828586454283,0.0028114937473363473,0.06328153435441694,0.0632865282692121,0.0,0.0002172635567069649
1626109281.417427,-0.06725025067317124,0.0001346082042587219,4.52,3.01,0.008092550560832024,-0.8791362047195435,48.10975646972656,-0.04638671875,0.01123046875,0.039798449006275556,-0.17030486108683812,0.0,0.0,-0.575942159387361,-1.0,0.0028113552802657244,0.00281136370632539,0.06327382913159121,0.06327836106341661,0.0,0.00025929088235403176
1626109281.477427,-0.057197789952059125,0.00014415481845032663,4.52,3.01,0.012687638401985168,-0.9402568340301514,51.28049087524414,-0.0126953125,-0.0302734375,0.039798449006275556,-0.17030486108683812,0.0,0.0,-0.575942159387361,-1.0,0.0028113552802657244,0.00281136370632539,0.06327382913159121,0.06327836106341661,0.0,0.00025929088235403176
1626109281.537427,-0.052204069778711705,0.000153315997293829,4.53,3.0,0.0069619715213775635,-0.9499661326408386,51.28049087524414,-0.0126953125,-0.0302734375,0.03496072859201229,-0.16335024055748693,0.0,0.0,-0.6289469698418508,-1.0,0.0033797922278935924,0.003379800910862907,0.0640159623609353,0.06402008011170479,0.0,0.0002884901810485935
1626109281.597427,-0.04479122242221594,0.0001640845593031717,4.53,3.0,0.009130739606916904,-0.9786240458488464,57.68292999267578,0.0283203125,0.07373046875,0.03137281925406273,-0.16138785614755446,0.0,0.0,-0.6820447352853888,-1.0,0.0028111219275231414,0.0028111266261522973,0.06329889262379643,0.06330258757588464,0.0,0.0003145299806074285
1626109281.667427,-0.035313866924477785,0.0001691988990653448,4.55,3.03,0.012653789483010769,-0.939969003200531,60.30487823486328,-0.06298828125,-0.072265625,0.024862717912265495,-0.1583679203353785,0.0,0.0,-0.7991112117320837,-1.0,0.002810895299431782,0.002810897020788441,0.06333885757112305,0.06334183298143706,0.0,0.00034379362682087375
1626109281.717427,-0.03563689228145417,0.00017439540805350438,4.56,3.04,0.012196840718388557,-0.9006706476211548,60.30487823486328,-0.06298828125,-0.072265625,0.022404060947782148,-0.15853098551157735,0.0,0.0,-0.858022762415857,-1.0,0.002810841372234073,0.0028108419209850353,0.06334384972050193,0.06334650732537539,0.0,0.0003266812119465388
1626109281.777427,-0.030290116514930392,0.00018010940239153667,4.56,3.04,0.012196840718388557,-0.9006706476211548,53.59756088256836,-0.01416015625,-0.0009765625,0.022404060947782148,-0.15853098551157735,0.0,0.0,-0.858022762415857,-1.0,0.002810841372234073,0.0028108419209850353,0.06334384972050193,0.06334650732537539,0.0,0.0003266812119465388
1626109281.837427,-0.0283173836874235,0.0001751065600318643,4.56,3.04,0.010181935504078865,-0.8906430602073669,53.59756088256836,-0.01416015625,-0.0009765625,0.02022212269597381,-0.158693896607079,0.0,0.0,-0.9156431881191713,-1.0,0.0029235774298190763,0.0029235769819949127,0.06351060214176889,0.06351297204765566,0.0,0.00030397545514370273
1626109281.897427,-0.02428051820516014,0.00016425971774427066,4.56,3.04,0.010172068141400814,-0.8955672979354858,48.90243911743164,0.0234375,-0.03857421875,0.01837229500213317,-0.15982792200248314,0.0,0.0,-0.9707023412794025,-1.0,0.002810862901621529,0.002810861839345751,0.06338919187560295,0.06339129739466487,0.0,0.0002801016867902945
1626109281.959427,-0.020262649889501754,0.0001515572619607234,4.56,3.04,0.010485154576599598,-0.9171923398971558,52.0121955871582,0.0595703125,0.0087890625,0.015196625838873896,-0.1634215090400336,0.0,0.0,-1.0807651172995196,-1.0,0.002811012410796808,0.0028110104955809167,0.06341362824090771,0.06341527889742382,0.0,0.0002400587714596639
1626109282.017427,-0.020471190423859992,0.00013907116282637432,4.55,3.04,0.010897872038185596,-0.9563031196594238,52.0121955871582,0.0595703125,0.0087890625,0.013911234059020105,-0.166383538966677,0.0,0.0,-1.1365449565436962,-1.0,0.0028110597491602177,0.0028110576273010337,0.06340843351407774,0.06340988906809628,0.0,0.0002168209074947056
1626109282.077427,-0.017733638594730237,0.0001274555658076723,4.55,3.04,0.010897872038185596,-0.9563031196594238,50.79268264770508,0.01220703125,0.04150390625,0.013911234059020105,-0.166383538966677,0.0,0.0,-1.1365449565436962,-1.0,0.0028110597491602177,0.0028110576273010337,0.06340843351407774,0.06340988906809628,0.0,0.0002168209074947056
1626109282.137427,-0.016910775567548608,0.00011789594397360459,4.54,3.05,0.010205649770796299,-0.8958612680435181,50.79268264770508,0.01220703125,0.04150390625,0.012642793741370652,-0.23385854716015492,0.0,0.0,-1.1970617131557004,-1.0,0.00361066944907469,0.0036106656433080512,0.06444175105648757,0.06444303477936121,0.0,0.00018566761100318935
1626109282.197427,-0.014882798722794697,0.00010663442601480729,4.54,3.05,0.008438494987785816,-0.9122999310493469,49.69512176513672,-0.0126953125,-0.11181640625,0.0118943035514212,-0.27799171622656593,0.0,0.0,-1.2506848659348284,-1.0,0.002811136277185539,0.0028111339930262406,0.06342194067025417,0.0634230645674052,0.0,0.00015116563853608586
1626109282.271427,-0.012822305232007352,9.225695182627546e-05,4.54,3.06,0.007320210337638855,-0.9889810085296631,52.9878044128418,0.03125,-0.0126953125,0.010250973187938186,-0.3765837385484002,0.0,0.0,-1.3651995743814624,-1.0,0.002811026005569047,0.002811023858942417,0.0634517713696695,0.06345263046234065,0.0,9.22974876172412e-05
1626109282.317427,-0.012704067559109425,7.800607555530936e-05,4.55,3.07,0.00995324831455946,-1.0449490547180176,52.9878044128418,0.03125,-0.0126953125,0.009589537048766417,-0.386140413714832,0.0,0.0,-1.4233519305252673,-1.0,0.002811067646955211,0.002811065629630497,0.063447849834802,0.06344859753111333,0.0,6.46240170411788e-05
1626109282.377427,-0.01126484361980409,6.621591535235048e-05,4.55,3.07,0.00995324831455946,-1.0449490547180176,57.19512176513672,0.01025390625,-0.0556640625,0.009589537048766417,-0.386140413714832,0.0,0.0,-1.4233519305252673,-1.0,0.002811067646955211,0.002811065629630497,0.063447849834802,0.06344859753111333,0.0,6.46240170411788e-05
