time,la_x,la_y,uwb_x,uwb_y,vel_linear_x,vel_angular_z,mpu_ang_vel_z,mpu_linear_acc_x,mpu_linear_acc_y,odom_linear_x,odom_angular_z,odom_filtered_linear_x,odom_filtered_angular_z,odom_yaw,odom_filtered_yaw
1624633977.361622,-4.998406993694084e-07,-2.0633716443658533e-07,0.0,0.0,,,1.3414634466171265,-0.0166015625,0.0048828125,3.0902729864871452e-12,0.0008602122200567459,,,0.47472034101976984,
1624633977.361622,-4.998406993694084e-07,-2.0633716443658533e-07,0.0,0.0,4.305781203584047e-06,4.005377923022024e-05,1.3414634466171265,-0.0166015625,0.0048828125,3.0902729864871452e-12,0.0008602122200567459,-1.7682056379499036e-07,0.0008313762775025571,0.47472034101976984,0.4754158401645022
1624633977.361622,-4.998406993694084e-07,-2.0633716443658533e-07,0.0,0.0,4.305781203584047e-06,4.005377923022024e-05,1.3414634466171265,-0.0166015625,0.0048828125,3.0902729864871452e-12,0.0008602122200567459,-1.7682056379499036e-07,0.0008313762775025571,0.47472034101976984,0.4754158401645022
1624633977.361622,-4.998406993694084e-07,-2.0633716443658533e-07,0.0,0.0,4.305781203584047e-06,4.005377923022024e-05,1.3414634466171265,-0.0166015625,0.0048828125,3.0902729864871452e-12,0.0008602122200567459,-1.7682056379499036e-07,0.0008313762775025571,0.47472034101976984,0.4754158401645022
1624633977.361622,-4.998406993694084e-07,-2.0633716443658533e-07,0.0,0.0,4.305781203584047e-06,4.005377923022024e-05,1.3414634466171265,-0.0166015625,0.0048828125,2.9560185999355403e-12,0.0006306738410699507,-1.7682056379499036e-07,0.0008313762775025571,0.4747109923503053,0.4754158401645022
1624633977.421622,-4.819788160421222e-07,-1.9730049038645122e-07,0.0,0.0,4.305781203584047e-06,4.005377923022024e-05,1.3414634466171265,-0.0166015625,0.0048828125,2.9560185999355403e-12,0.0006306738410699507,-1.7682056379499036e-07,0.0008313762775025571,0.4747109923503053,0.4754158401645022
1624633977.421622,-4.819788160421222e-07,-1.9730049038645122e-07,0.0,0.0,4.305781203584047e-06,4.005377923022024e-05,1.3414634466171265,-0.0166015625,0.0048828125,2.9560185999355403e-12,0.0006306738410699507,-1.7271434250657546e-07,0.0007131484961264512,0.4747109923503053,0.4754146432308854
1624633977.421622,-4.819788160421222e-07,-1.9730049038645122e-07,0.0,0.0,4.410800556797767e-06,4.103070023120381e-05,1.3414634466171265,-0.0166015625,0.0048828125,2.9560185999355403e-12,0.0006306738410699507,-1.7271434250657546e-07,0.0007131484961264512,0.4747109923503053,0.4754146432308854
1624633977.421622,-4.819788160421222e-07,-1.9730049038645122e-07,0.0,0.0,4.410800556797767e-06,4.103070023120381e-05,1.402438998222351,-0.013671875,0.0087890625,2.9560185999355403e-12,0.0006306738410699507,-1.7271434250657546e-07,0.0007131484961264512,0.4747109923503053,0.4754146432308854
1624633977.421622,-4.819788160421222e-07,-1.9730049038645122e-07,5.86,5.03,4.410800556797767e-06,4.103070023120381e-05,1.402438998222351,-0.013671875,0.0087890625,2.9560185999355403e-12,0.0006306738410699507,-1.7271434250657546e-07,0.0007131484961264512,0.4747109923503053,0.4754146432308854
1624633977.421622,-4.691730013371133e-07,-1.9082177996778822e-07,5.86,5.03,4.410800556797767e-06,4.103070023120381e-05,1.402438998222351,-0.013671875,0.0087890625,2.9560185999355403e-12,0.0006306738410699507,-1.4826926192100935e-07,0.0006678666951328943,0.4747109923503053,0.4753740465505393
1624633977.421622,-4.691730013371133e-07,-1.9082177996778822e-07,5.86,5.03,4.410800556797767e-06,4.103070023120381e-05,1.402438998222351,-0.013671875,0.0087890625,2.9560185999355403e-12,0.0006306738410699507,-1.4826926192100935e-07,0.0006678666951328943,0.4747109923503053,0.4753740465505393
1624633977.421622,-4.691730013371133e-07,-1.9082177996778822e-07,5.86,5.03,4.410800556797767e-06,4.103070023120381e-05,1.402438998222351,-0.013671875,0.0087890625,2.9560185999355403e-12,0.0006306738410699507,-1.4826926192100935e-07,0.0006678666951328943,0.4747109923503053,0.4753740465505393
1624633977.421622,-4.691730013371133e-07,-1.9082177996778822e-07,5.86,5.03,4.410800556797767e-06,4.103070023120381e-05,1.402438998222351,-0.013671875,0.0087890625,2.9560185999355403e-12,0.0006306738410699507,-1.4826926192100935e-07,0.0006678666951328943,0.4747109923503053,0.4753740465505393
1624633977.421622,-4.691730013371133e-07,-1.9082177996778822e-07,5.86,5.03,4.410800556797767e-06,4.103070023120381e-05,1.402438998222351,-0.013671875,0.0087890625,2.8913938947726706e-12,0.0008421923887849326,-1.4826926192100935e-07,0.0006678666951328943,0.4747160896777334,0.4753740465505393
1624633977.481622,-4.5536098710244827e-07,-1.8384007860302433e-07,5.86,5.03,4.410800556797767e-06,4.103070023120381e-05,1.402438998222351,-0.013671875,0.0087890625,2.8913938947726706e-12,0.0008421923887849326,-1.5011872073774583e-07,0.0007178278436823241,0.4747160896777334,0.47537965174500996
1624633977.481622,-4.5536098710244827e-07,-1.8384007860302433e-07,5.86,5.03,4.410800556797767e-06,4.103070023120381e-05,1.4634146690368652,-0.0078125,0.00439453125,2.8913938947726706e-12,0.0008421923887849326,-1.5011872073774583e-07,0.0007178278436823241,0.4747160896777334,0.47537965174500996
1624633977.481622,-4.5536098710244827e-07,-1.8384007860302433e-07,5.86,5.03,4.410800556797767e-06,4.103070023120381e-05,1.4634146690368652,-0.0078125,0.00439453125,2.8913938947726706e-12,0.0008421923887849326,-1.5011872073774583e-07,0.0007178278436823241,0.4747160896777334,0.47537965174500996
1624633977.481622,-4.5536098710244827e-07,-1.8384007860302433e-07,5.86,5.03,4.410800556797767e-06,4.103070023120381e-05,1.4634146690368652,-0.0078125,0.00439453125,2.8913938947726706e-12,0.0008421923887849326,-1.5011872073774583e-07,0.0007178278436823241,0.4747160896777334,0.47537965174500996
1624633977.481622,-4.5536098710244827e-07,-1.8384007860302433e-07,5.86,5.03,4.521070422924822e-06,4.2056468373630196e-05,1.4634146690368652,-0.0078125,0.00439453125,2.8913938947726706e-12,0.0008421923887849326,-1.5011872073774583e-07,0.0007178278436823241,0.4747160896777334,0.47537965174500996
1624633977.5416222,-4.409233566602357e-07,-1.7655090690359546e-07,5.86,5.03,4.521070422924822e-06,4.2056468373630196e-05,1.4634146690368652,-0.0078125,0.00439453125,2.78844166376877e-12,0.0007893288599325469,-1.4996367098072222e-07,0.0007174756186604035,0.474715488950085,0.4753844696218666
1624633977.5416222,-4.409233566602357e-07,-1.7655090690359546e-07,5.86,5.03,4.521070422924822e-06,4.2056468373630196e-05,1.4634146690368652,-0.0078125,0.00439453125,2.78844166376877e-12,0.0007893288599325469,-1.4996367098072222e-07,0.0007174756186604035,0.474715488950085,0.4753844696218666
1624633977.5416222,-4.409233566602357e-07,-1.7655090690359546e-07,5.86,5.03,4.521070422924822e-06,4.2056468373630196e-05,1.4634146690368652,-0.0078125,0.00439453125,2.78844166376877e-12,0.0007893288599325469,-1.4996367098072222e-07,0.0007174756186604035,0.474715488950085,0.4753844696218666
1624633977.5416222,-4.409233566602357e-07,-1.7655090690359546e-07,5.86,5.03,4.521070422924822e-06,4.2056468373630196e-05,1.4634146690368652,-0.0078125,0.00439453125,2.78844166376877e-12,0.0007893288599325469,-1.4996367098072222e-07,0.0007174756186604035,0.474715488950085,0.4753844696218666
1624633977.5416222,-4.409233566602357e-07,-1.7655090690359546e-07,5.86,5.03,4.521070422924822e-06,4.2056468373630196e-05,1.4634146690368652,-0.0078125,0.00439453125,2.8164482547232602e-12,0.0011419419758339844,-1.4996367098072222e-07,0.0007174756186604035,0.47472850461072463,0.4753844696218666
1624633977.601622,-4.261682813193461e-07,-1.6911073349821832e-07,5.86,5.03,4.410800556797767e-06,4.103070023120381e-05,1.4634146690368652,-0.0078125,0.00439453125,2.8164482547232602e-12,0.0011419419758339844,-1.483224906924809e-07,0.0008703554950133808,0.47472850461072463,0.47539961063006114
1624633977.601622,-4.261682813193461e-07,-1.6911073349821832e-07,5.86,5.03,4.410800556797767e-06,4.103070023120381e-05,1.4634146690368652,-0.0078125,0.00439453125,2.8164482547232602e-12,0.0011419419758339844,-1.483224906924809e-07,0.0008703554950133808,0.47472850461072463,0.47539961063006114
1624633977.601622,-4.261682813193461e-07,-1.6911073349821832e-07,5.86,5.03,4.410800556797767e-06,4.103070023120381e-05,1.402438998222351,-0.00390625,0.00048828125,2.8164482547232602e-12,0.0011419419758339844,-1.483224906924809e-07,0.0008703554950133808,0.47472850461072463,0.47539961063006114
1624633977.601622,-4.261682813193461e-07,-1.6911073349821832e-07,5.86,5.03,4.410800556797767e-06,4.103070023120381e-05,1.402438998222351,-0.00390625,0.00048828125,2.8164482547232602e-12,0.0011419419758339844,-1.483224906924809e-07,0.0008703554950133808,0.47472850461072463,0.47539961063006114
1624633977.601622,-4.261682813193461e-07,-1.6911073349821832e-07,5.86,5.04,4.410800556797767e-06,4.103070023120381e-05,1.402438998222351,-0.00390625,0.00048828125,2.8164482547232602e-12,0.0011419419758339844,-1.483224906924809e-07,0.0008703554950133808,0.47472850461072463,0.47539961063006114
1624633977.661622,-4.1134377510068825e-07,-1.6164794297871186e-07,5.86,5.04,4.410800556797767e-06,4.103070023120381e-05,1.402438998222351,-0.00390625,0.00048828125,2.7930694179998504e-12,0.0010698945415365242,-1.4563051066320987e-07,0.0009095685932440047,0.4747282897127902,0.47541451952964414
1624633977.661622,-4.1134377510068825e-07,-1.6164794297871186e-07,5.86,5.04,4.410800556797767e-06,4.103070023120381e-05,1.402438998222351,-0.00390625,0.00048828125,2.7930694179998504e-12,0.0010698945415365242,-1.4563051066320987e-07,0.0009095685932440047,0.4747282897127902,0.47541451952964414
1624633977.661622,-4.1134377510068825e-07,-1.6164794297871186e-07,5.86,5.04,4.410800556797767e-06,4.103070023120381e-05,1.402438998222351,-0.00390625,0.00048828125,2.7930694179998504e-12,0.0010698945415365242,-1.4563051066320987e-07,0.0009095685932440047,0.4747282897127902,0.47541451952964414
1624633977.661622,-4.1134377510068825e-07,-1.6164794297871186e-07,5.86,5.04,4.410800556797767e-06,4.103070023120381e-05,1.402438998222351,-0.00390625,0.00048828125,2.7930694179998504e-12,0.0010698945415365242,-1.4563051066320987e-07,0.0009095685932440047,0.4747282897127902,0.47541451952964414
1624633977.661622,-4.1134377510068825e-07,-1.6164794297871186e-07,5.86,5.04,4.410800556797767e-06,4.103070023120381e-05,1.402438998222351,-0.00390625,0.00048828125,2.773687224831687e-12,0.0009684342245577542,-1.4563051066320987e-07,0.0009095685932440047,0.4747254851315947,0.47541451952964414
1624633977.721622,-3.9662671999121594e-07,-1.542522544318247e-07,5.86,5.04,4.410800556797767e-06,4.103070023120381e-05,1.402438998222351,-0.00390625,0.00048828125,2.773687224831687e-12,0.0009684342245577542,-1.4221212045613795e-07,0.0008999601078776899,0.4747254851315947,0.47542652938380625
1624633977.721622,-3.9662671999121594e-07,-1.542522544318247e-07,5.86,5.04,4.410800556797767e-06,4.103070023120381e-05,1.402438998222351,-0.00390625,0.00048828125,2.773687224831687e-12,0.0009684342245577542,-1.4221212045613795e-07,0.0008999601078776899,0.4747254851315947,0.47542652938380625
1624633977.721622,-3.9662671999121594e-07,-1.542522544318247e-07,5.86,5.04,4.410800556797767e-06,4.103070023120381e-05,1.402438998222351,-0.01220703125,0.01025390625,2.773687224831687e-12,0.0009684342245577542,-1.4221212045613795e-07,0.0008999601078776899,0.4747254851315947,0.47542652938380625
1624633977.721622,-3.9662671999121594e-07,-1.542522544318247e-07,5.86,5.04,4.410800556797767e-06,4.103070023120381e-05,1.402438998222351,-0.01220703125,0.01025390625,2.773687224831687e-12,0.0009684342245577542,-1.4221212045613795e-07,0.0008999601078776899,0.4747254851315947,0.47542652938380625
1624633977.721622,-3.9662671999121594e-07,-1.542522544318247e-07,5.84,5.04,4.410800556797767e-06,4.103070023120381e-05,1.402438998222351,-0.01220703125,0.01025390625,2.773687224831687e-12,0.0009684342245577542,-1.4221212045613795e-07,0.0008999601078776899,0.4747254851315947,0.47542652938380625
1624633977.721622,-3.860780885069589e-07,-1.489513034019807e-07,5.84,5.04,4.410800556797767e-06,4.103070023120381e-05,1.402438998222351,-0.01220703125,0.01025390625,2.773687224831687e-12,0.0009684342245577542,-1.2207181968079271e-07,0.0008985755157940405,0.4747254851315947,0.47538907395959396
1624633977.721622,-3.860780885069589e-07,-1.489513034019807e-07,5.84,5.04,4.410800556797767e-06,4.103070023120381e-05,1.402438998222351,-0.01220703125,0.01025390625,2.773687224831687e-12,0.0009684342245577542,-1.2207181968079271e-07,0.0008985755157940405,0.4747254851315947,0.47538907395959396
1624633977.721622,-3.860780885069589e-07,-1.489513034019807e-07,5.84,5.04,4.410800556797767e-06,4.103070023120381e-05,1.402438998222351,-0.01220703125,0.01025390625,2.773687224831687e-12,0.0009684342245577542,-1.2207181968079271e-07,0.0008985755157940405,0.4747254851315947,0.47538907395959396
1624633977.721622,-3.860780885069589e-07,-1.489513034019807e-07,5.84,5.04,4.410800556797767e-06,4.103070023120381e-05,1.402438998222351,-0.01220703125,0.01025390625,2.773687224831687e-12,0.0009684342245577542,-1.2207181968079271e-07,0.0008985755157940405,0.4747254851315947,0.47538907395959396
1624633977.721622,-3.860780885069589e-07,-1.489513034019807e-07,5.84,5.04,4.410800556797767e-06,4.103070023120381e-05,1.402438998222351,-0.01220703125,0.01025390625,2.7152948340087043e-12,0.0008992932925055181,-1.2207181968079271e-07,0.0008985755157940405,0.4747280124484098,0.47538907395959396
1624633977.787622,-3.744023496921982e-07,-1.4314638000802482e-07,5.84,5.04,4.410800556797767e-06,4.103070023120381e-05,1.402438998222351,-0.01220703125,0.01025390625,2.7152948340087043e-12,0.0008992932925055181,-1.2530591927722414e-07,0.0008780522773910265,0.4747280124484098,0.47541219074702307
1624633977.787622,-3.744023496921982e-07,-1.4314638000802482e-07,5.84,5.04,4.410800556797767e-06,4.103070023120381e-05,1.2804877758026123,-0.00537109375,-0.00341796875,2.7152948340087043e-12,0.0008992932925055181,-1.2530591927722414e-07,0.0008780522773910265,0.4747280124484098,0.47541219074702307
1624633977.787622,-3.744023496921982e-07,-1.4314638000802482e-07,5.84,5.04,4.410800556797767e-06,4.103070023120381e-05,1.2804877758026123,-0.00537109375,-0.00341796875,2.7152948340087043e-12,0.0008992932925055181,-1.2530591927722414e-07,0.0008780522773910265,0.4747280124484098,0.47541219074702307
1624633977.787622,-3.744023496921982e-07,-1.4314638000802482e-07,5.84,5.04,4.410800556797767e-06,4.103070023120381e-05,1.2804877758026123,-0.00537109375,-0.00341796875,2.7152948340087043e-12,0.0008992932925055181,-1.2530591927722414e-07,0.0008780522773910265,0.4747280124484098,0.47541219074702307
1624633977.787622,-3.744023496921982e-07,-1.4314638000802482e-07,5.84,5.04,4.410800556797767e-06,4.103070023120381e-05,1.2804877758026123,-0.00537109375,-0.00341796875,2.6659052845974083e-12,0.0008480978440447985,-1.2530591927722414e-07,0.0008780522773910265,0.4747200168204284,0.47541219074702307
1624633977.841622,-3.6260050761751266e-07,-1.3723869604113524e-07,5.86,5.05,4.410800556797767e-06,4.103070023120381e-05,1.2804877758026123,-0.00537109375,-0.00341796875,2.6659052845974083e-12,0.0008480978440447985,-1.2305281560421023e-07,0.0008401176591647258,0.4747200168204284,0.4754168728862071
1624633977.841622,-3.6260050761751266e-07,-1.3723869604113524e-07,5.86,5.05,4.410800556797767e-06,4.103070023120381e-05,1.2804877758026123,-0.00537109375,-0.00341796875,2.6659052845974083e-12,0.0008480978440447985,-1.2305281560421023e-07,0.0008401176591647258,0.4747200168204284,0.4754168728862071
1624633977.841622,-3.6260050761751266e-07,-1.3723869604113524e-07,5.86,5.05,4.410800556797767e-06,4.103070023120381e-05,1.2804877758026123,-0.00537109375,-0.00341796875,2.6659052845974083e-12,0.0008480978440447985,-1.2305281560421023e-07,0.0008401176591647258,0.4747200168204284,0.4754168728862071
1624633977.841622,-3.6260050761751266e-07,-1.3723869604113524e-07,5.86,5.05,4.410800556797767e-06,4.103070023120381e-05,1.2804877758026123,-0.00537109375,-0.00341796875,2.6659052845974083e-12,0.0008480978440447985,-1.2305281560421023e-07,0.0008401176591647258,0.4747200168204284,0.4754168728862071
1624633977.841622,-3.6260050761751266e-07,-1.3723869604113524e-07,5.86,5.05,4.410800556797767e-06,4.103070023120381e-05,1.2804877758026123,-0.00537109375,-0.00341796875,2.5974310068144705e-12,0.0007766654826251817,-1.2305281560421023e-07,0.0008401176591647258,0.4747169952750078,0.4754168728862071
1624633977.901622,-3.505171195839076e-07,-1.3120729825340032e-07,5.86,5.05,4.410800556797767e-06,4.103070023120381e-05,1.2804877758026123,-0.00537109375,-0.00341796875,2.5974310068144705e-12,0.0007766654826251817,-1.2179295971302627e-07,0.0007840010843707648,0.4747169952750078,0.47542218203561715
1624633977.901622,-3.505171195839076e-07,-1.3120729825340032e-07,5.86,5.05,4.410800556797767e-06,4.103070023120381e-05,1.402438998222351,-0.00390625,0.00927734375,2.5974310068144705e-12,0.0007766654826251817,-1.2179295971302627e-07,0.0007840010843707648,0.4747169952750078,0.47542218203561715
1624633977.901622,-3.505171195839076e-07,-1.3120729825340032e-07,5.86,5.05,4.410800556797767e-06,4.103070023120381e-05,1.402438998222351,-0.00390625,0.00927734375,2.5974310068144705e-12,0.0007766654826251817,-1.2179295971302627e-07,0.0007840010843707648,0.4747169952750078,0.47542218203561715
1624633977.901622,-3.505171195839076e-07,-1.3120729825340032e-07,5.86,5.05,4.410800556797767e-06,4.103070023120381e-05,1.402438998222351,-0.00390625,0.00927734375,2.5974310068144705e-12,0.0007766654826251817,-1.2179295971302627e-07,0.0007840010843707648,0.4747169952750078,0.47542218203561715
1624633977.961622,-3.383610855059414e-07,-1.2515946152410883e-07,5.86,5.04,4.410800556797767e-06,4.103070023120381e-05,1.402438998222351,-0.00390625,0.00927734375,2.506457584073071e-12,0.0007276521639734432,-1.1964512133215354e-07,0.0007309113898136822,0.47471426356947505,0.4754235209561187
1624633977.961622,-3.383610855059414e-07,-1.2515946152410883e-07,5.86,5.04,4.410800556797767e-06,4.103070023120381e-05,1.402438998222351,-0.00390625,0.00927734375,2.506457584073071e-12,0.0007276521639734432,-1.1964512133215354e-07,0.0007309113898136822,0.47471426356947505,0.4754235209561187
1624633977.961622,-3.383610855059414e-07,-1.2515946152410883e-07,5.86,5.04,4.410800556797767e-06,4.103070023120381e-05,1.402438998222351,-0.00390625,0.00927734375,2.506457584073071e-12,0.0007276521639734432,-1.1964512133215354e-07,0.0007309113898136822,0.47471426356947505,0.4754235209561187
1624633977.961622,-3.383610855059414e-07,-1.2515946152410883e-07,5.86,5.04,4.410800556797767e-06,4.103070023120381e-05,1.402438998222351,-0.00390625,0.00927734375,2.506457584073071e-12,0.0007276521639734432,-1.1964512133215354e-07,0.0007309113898136822,0.47471426356947505,0.4754235209561187
1624633977.961622,-3.383610855059414e-07,-1.2515946152410883e-07,5.86,5.04,4.410800556797767e-06,4.103070023120381e-05,1.402438998222351,-0.00390625,0.00927734375,2.506457584073071e-12,0.0007276521639734432,-1.1964512133215354e-07,0.0007309113898136822,0.47471426356947505,0.4754235209561187
1624633977.961622,-3.383610855059414e-07,-1.2515946152410883e-07,5.86,5.04,4.410800556797767e-06,4.103070023120381e-05,1.402438998222351,-0.00390625,0.00927734375,2.4802171666144017e-12,0.0009449229285439073,-1.1964512133215354e-07,0.0007309113898136822,0.47472238344497664,0.4754235209561187
1624633978.0216222,-3.2628278257557854e-07,-1.191707006691007e-07,5.86,5.04,4.410800556797767e-06,4.103070023120381e-05,1.402438998222351,-0.00390625,0.00927734375,2.4802171666144017e-12,0.0009449229285439073,-1.1688376461986706e-07,0.0007853512597766025,0.47472238344497664,0.4754291910163129
1624633978.0216222,-3.2628278257557854e-07,-1.191707006691007e-07,5.86,5.04,4.410800556797767e-06,4.103070023120381e-05,1.402438998222351,-0.00390625,0.00927734375,2.4802171666144017e-12,0.0009449229285439073,-1.1688376461986706e-07,0.0007853512597766025,0.47472238344497664,0.4754291910163129
1624633978.0216222,-3.2628278257557854e-07,-1.191707006691007e-07,5.86,5.04,4.410800556797767e-06,4.103070023120381e-05,1.3414634466171265,-0.0029296875,0.00390625,2.4802171666144017e-12,0.0009449229285439073,-1.1688376461986706e-07,0.0007853512597766025,0.47472238344497664,0.4754291910163129
1624633978.0216222,-3.2628278257557854e-07,-1.191707006691007e-07,5.86,5.02,4.410800556797767e-06,4.103070023120381e-05,1.3414634466171265,-0.0029296875,0.00390625,2.4802171666144017e-12,0.0009449229285439073,-1.1688376461986706e-07,0.0007853512597766025,0.47472238344497664,0.4754291910163129
1624633978.0216222,-3.176221694080731e-07,-1.148765264700011e-07,5.86,5.02,4.410800556797767e-06,4.103070023120381e-05,1.3414634466171265,-0.0029296875,0.00390625,2.4802171666144017e-12,0.0009449229285439073,-1.0034663714472708e-07,0.0008104715787292093,0.47472238344497664,0.47539308537358976
1624633978.0216222,-3.176221694080731e-07,-1.148765264700011e-07,5.86,5.02,4.410800556797767e-06,4.103070023120381e-05,1.3414634466171265,-0.0029296875,0.00390625,2.4802171666144017e-12,0.0009449229285439073,-1.0034663714472708e-07,0.0008104715787292093,0.47472238344497664,0.47539308537358976
1624633978.0216222,-3.176221694080731e-07,-1.148765264700011e-07,5.86,5.02,4.410800556797767e-06,4.103070023120381e-05,1.3414634466171265,-0.0029296875,0.00390625,2.4802171666144017e-12,0.0009449229285439073,-1.0034663714472708e-07,0.0008104715787292093,0.47472238344497664,0.47539308537358976
1624633978.0216222,-3.176221694080731e-07,-1.148765264700011e-07,5.86,5.02,4.410800556797767e-06,4.103070023120381e-05,1.3414634466171265,-0.0029296875,0.00390625,2.4802171666144017e-12,0.0009449229285439073,-1.0034663714472708e-07,0.0008104715787292093,0.47472238344497664,0.47539308537358976
1624633978.0216222,-3.176221694080731e-07,-1.148765264700011e-07,5.86,5.02,4.410800556797767e-06,4.103070023120381e-05,1.3414634466171265,-0.0029296875,0.00390625,2.4802171666144017e-12,0.0009449229285439073,-1.0034663714472708e-07,0.0008104715787292093,0.47472238344497664,0.47539308537358976
1624633978.0816221,-3.0827889029273104e-07,-1.1026377232944513e-07,5.86,5.02,4.410800556797767e-06,4.103070023120381e-05,1.3414634466171265,-0.0029296875,0.00390625,2.4284644770263862e-12,0.001001658038185076,-1.016087187971414e-07,0.0008667006148066681,0.4747244382945313,0.4754064380187396
1624633978.0816221,-3.0827889029273104e-07,-1.1026377232944513e-07,5.86,5.02,4.410800556797767e-06,4.103070023120381e-05,1.3414634466171265,-0.0029296875,0.00390625,2.4284644770263862e-12,0.001001658038185076,-1.016087187971414e-07,0.0008667006148066681,0.4747244382945313,0.4754064380187396
1624633978.0816221,-3.0827889029273104e-07,-1.1026377232944513e-07,5.86,5.02,4.410800556797767e-06,4.103070023120381e-05,1.3414634466171265,-0.0029296875,0.00390625,2.4284644770263862e-12,0.001001658038185076,-1.016087187971414e-07,0.0008667006148066681,0.4747244382945313,0.4754064380187396
1624633978.0816221,-3.0827889029273104e-07,-1.1026377232944513e-07,5.86,5.02,4.410800556797767e-06,4.103070023120381e-05,1.3414634466171265,-0.00439453125,0.0029296875,2.4284644770263862e-12,0.001001658038185076,-1.016087187971414e-07,0.0008667006148066681,0.4747244382945313,0.4754064380187396
1624633978.0816221,-3.0827889029273104e-07,-1.1026377232944513e-07,5.86,5.02,0.0019258593674749136,0.017914971336722374,1.3414634466171265,-0.00439453125,0.0029296875,0.023551571321925365,0.0009387272254016084,-1.016087187971414e-07,0.0008667006148066681,0.47472306766634875,0.4754064380187396
1624633978.141622,0.0019151751035391086,-1.0544137602508667e-07,5.87,5.05,0.0019258593674749136,0.017914971336722374,1.3414634466171265,-0.00439453125,0.0029296875,0.023551571321925365,0.0009387272254016084,0.0036458474178208446,0.0008652430248242468,0.47472306766634875,0.4754184179691972
1624633978.141622,0.0019151751035391086,-1.0544137602508667e-07,5.87,5.05,0.0019258593674749136,0.017914971336722374,1.3414634466171265,-0.00439453125,0.0029296875,0.023551571321925365,0.0009387272254016084,0.0036458474178208446,0.0008652430248242468,0.47472306766634875,0.4754184179691972
1624633978.141622,0.0019151751035391086,-1.0544137602508667e-07,5.87,5.05,0.0019258593674749136,0.017914971336722374,1.3414634466171265,-0.00439453125,0.0029296875,0.023551571321925365,0.0009387272254016084,0.0036458474178208446,0.0008652430248242468,0.47472306766634875,0.4754184179691972
1624633978.141622,0.0019151751035391086,-1.0544137602508667e-07,5.87,5.05,0.0019258593674749136,0.017914971336722374,1.3414634466171265,-0.00439453125,0.0029296875,0.023551571321925365,0.0009387272254016084,0.0036458474178208446,0.0008652430248242468,0.47472306766634875,0.4754184179691972
1624633978.141622,0.0019151751035391086,-1.0544137602508667e-07,5.87,5.05,0.0019258593674749136,0.017914971336722374,1.3414634466171265,-0.00439453125,0.0029296875,0.023551571321925365,0.0009387272254016084,0.0036458474178208446,0.0008652430248242468,0.47472306766634875,0.4754184179691972
1624633978.201622,0.005338626373449294,-1.0959975223976066e-07,5.87,5.05,0.046790268272161484,0.1797279566526413,1.3414634466171265,-0.00439453125,0.0029296875,0.04470807238880894,0.0010517233449936314,0.010280350402070015,0.0009236099024619584,0.4749244286155068,0.4754443143289071
1624633978.201622,0.005338626373449294,-1.0959975223976066e-07,5.87,5.05,0.046790268272161484,0.1797279566526413,1.3414634466171265,-0.00439453125,0.0029296875,0.04470807238880894,0.0010517233449936314,0.010280350402070015,0.0009236099024619584,0.4749244286155068,0.4754443143289071
1624633978.201622,0.005338626373449294,-1.0959975223976066e-07,5.87,5.05,0.046790268272161484,0.1797279566526413,1.3414634466171265,-0.00439453125,0.0029296875,0.04470807238880894,0.0010517233449936314,0.010280350402070015,0.0009236099024619584,0.4749244286155068,0.4754443143289071
1624633978.201622,0.005338626373449294,-1.0959975223976066e-07,5.87,5.05,0.046790268272161484,0.1797279566526413,4.878048896789551,0.0107421875,-0.03955078125,0.04470807238880894,0.0010517233449936314,0.010280350402070015,0.0009236099024619584,0.4749244286155068,0.4754443143289071
1624633978.201622,0.005338626373449294,-1.0959975223976066e-07,5.87,5.05,0.046790268272161484,0.1797279566526413,4.878048896789551,0.0107421875,-0.03955078125,0.04470807238880894,0.0010517233449936314,0.010280350402070015,0.0009236099024619584,0.4749244286155068,0.4754443143289071
1624633978.2616222,0.00996795015747028,-7.543414543428148e-08,5.87,5.04,0.046790268272161484,0.1797279566526413,4.878048896789551,0.0107421875,-0.03955078125,0.06491851091021708,0.0012614435539688653,0.019426813586884743,0.0012467108641234536,0.48001990005696704,0.4757739281623643
1624633978.2616222,0.00996795015747028,-7.543414543428148e-08,5.87,5.04,0.1232895776629448,0.016278602182865143,4.878048896789551,0.0107421875,-0.03955078125,0.06491851091021708,0.0012614435539688653,0.019426813586884743,0.0012467108641234536,0.48001990005696704,0.4757739281623643
1624633978.2616222,0.00996795015747028,-7.543414543428148e-08,5.87,5.04,0.1232895776629448,0.016278602182865143,4.878048896789551,0.0107421875,-0.03955078125,0.06491851091021708,0.0012614435539688653,0.019426813586884743,0.0012467108641234536,0.48001990005696704,0.4757739281623643
1624633978.2616222,0.00996795015747028,-7.543414543428148e-08,5.87,5.04,0.1232895776629448,0.016278602182865143,4.878048896789551,0.0107421875,-0.03955078125,0.06491851091021708,0.0012614435539688653,0.019426813586884743,0.0012467108641234536,0.48001990005696704,0.4757739281623643
1624633978.2616222,0.00996795015747028,-7.543414543428148e-08,5.87,5.04,0.1232895776629448,0.016278602182865143,4.878048896789551,0.0107421875,-0.03955078125,0.06491851091021708,0.0012614435539688653,0.019426813586884743,0.0012467108641234536,0.48001990005696704,0.4757739281623643
1624633978.3216221,0.015634052657870788,1.9004145225162083e-06,5.87,5.04,0.1232895776629448,0.016278602182865143,4.878048896789551,0.0107421875,-0.03955078125,0.08560810671155193,0.01339250697640406,0.030843547581120984,0.0067539401223036255,0.4853230195176437,0.47679308550065547
1624633978.3216221,0.015634052657870788,1.9004145225162083e-06,5.87,5.04,0.1232895776629448,0.016278602182865143,4.878048896789551,0.0107421875,-0.03955078125,0.08560810671155193,0.01339250697640406,0.030843547581120984,0.0067539401223036255,0.4853230195176437,0.47679308550065547
1624633978.3216221,0.015634052657870788,1.9004145225162083e-06,5.87,5.04,0.2187904566526413,-0.06385386735200882,-0.9756097793579102,-0.041015625,-0.201171875,0.08560810671155193,0.01339250697640406,0.030843547581120984,0.0067539401223036255,0.4853230195176437,0.47679308550065547
1624633978.3216221,0.015634052657870788,1.9004145225162083e-06,5.87,5.04,0.2187904566526413,-0.06385386735200882,-0.9756097793579102,-0.041015625,-0.201171875,0.08560810671155193,0.01339250697640406,0.030843547581120984,0.0067539401223036255,0.4853230195176437,0.47679308550065547
1624633978.3216221,0.015634052657870788,1.9004145225162083e-06,5.87,5.04,0.2187904566526413,-0.06385386735200882,-0.9756097793579102,-0.041015625,-0.201171875,0.08560810671155193,0.01339250697640406,0.030843547581120984,0.0067539401223036255,0.4853230195176437,0.47679308550065547
1624633978.3216221,0.019695492379328005,3.314704342613548e-06,5.88,5.04,0.2187904566526413,-0.06385386735200882,-0.9756097793579102,-0.041015625,-0.201171875,0.08560810671155193,0.01339250697640406,0.038598318258887494,0.008964103794670233,0.4853230195176437,0.477406748264583
1624633978.3216221,0.019695492379328005,3.314704342613548e-06,5.88,5.04,0.2187904566526413,-0.06385386735200882,-0.9756097793579102,-0.041015625,-0.201171875,0.08560810671155193,0.01339250697640406,0.038598318258887494,0.008964103794670233,0.4853230195176437,0.477406748264583
1624633978.3216221,0.019695492379328005,3.314704342613548e-06,5.88,5.04,0.2187904566526413,-0.06385386735200882,-0.9756097793579102,-0.041015625,-0.201171875,0.08560810671155193,0.01339250697640406,0.038598318258887494,0.008964103794670233,0.4853230195176437,0.477406748264583
1624633978.3216221,0.019695492379328005,3.314704342613548e-06,5.88,5.04,0.33561429381370544,-0.048029255121946335,-0.9756097793579102,-0.041015625,-0.201171875,0.08560810671155193,0.01339250697640406,0.038598318258887494,0.008964103794670233,0.4853230195176437,0.477406748264583
1624633978.3216221,0.019695492379328005,3.314704342613548e-06,5.88,5.04,0.33561429381370544,-0.048029255121946335,-0.9756097793579102,-0.041015625,-0.201171875,0.08560810671155193,0.01339250697640406,0.038598318258887494,0.008964103794670233,0.4853230195176437,0.477406748264583
1624633978.381622,0.025098687292973005,6.564718141187826e-06,5.88,5.04,0.33561429381370544,-0.048029255121946335,-0.9756097793579102,-0.041015625,-0.201171875,0.10877437723923454,0.024662063778777377,0.05007081950243268,0.015836473589469588,0.48547281235531775,0.4787916469580847
1624633978.381622,0.025098687292973005,6.564718141187826e-06,5.88,5.04,0.33561429381370544,-0.048029255121946335,-0.9756097793579102,-0.041015625,-0.201171875,0.10877437723923454,0.024662063778777377,0.05007081950243268,0.015836473589469588,0.48547281235531775,0.4787916469580847
1624633978.381622,0.025098687292973005,6.564718141187826e-06,5.88,5.04,0.33561429381370544,-0.048029255121946335,3.658536672592163,0.1689453125,-0.435546875,0.10877437723923454,0.024662063778777377,0.05007081950243268,0.015836473589469588,0.48547281235531775,0.4787916469580847
1624633978.381622,0.025098687292973005,6.564718141187826e-06,5.88,5.04,0.33561429381370544,-0.048029255121946335,3.658536672592163,0.1689453125,-0.435546875,0.10877437723923454,0.024662063778777377,0.05007081950243268,0.015836473589469588,0.48547281235531775,0.4787916469580847
1624633978.381622,0.025098687292973005,6.564718141187826e-06,5.88,5.04,0.4372307360172272,-0.016401709988713264,3.658536672592163,0.1689453125,-0.435546875,0.10877437723923454,0.024662063778777377,0.05007081950243268,0.015836473589469588,0.48547281235531775,0.4787916469580847
1624633978.441622,0.029936996162832748,7.663291286520965e-06,5.86,5.04,0.4372307360172272,-0.016401709988713264,3.658536672592163,0.1689453125,-0.435546875,0.11102472923955059,0.0229939546271184,0.06078610600844909,0.018562875541994442,0.4828177904091054,0.4800921203183955
1624633978.441622,0.029936996162832748,7.663291286520965e-06,5.86,5.04,0.4372307360172272,-0.016401709988713264,3.658536672592163,0.1689453125,-0.435546875,0.11102472923955059,0.0229939546271184,0.06078610600844909,0.018562875541994442,0.4828177904091054,0.4800921203183955
1624633978.441622,0.029936996162832748,7.663291286520965e-06,5.86,5.04,0.4372307360172272,-0.016401709988713264,3.658536672592163,0.1689453125,-0.435546875,0.11102472923955059,0.0229939546271184,0.06078610600844909,0.018562875541994442,0.4828177904091054,0.4800921203183955
1624633978.441622,0.029936996162832748,7.663291286520965e-06,5.86,5.04,0.4372307360172272,-0.016401709988713264,3.658536672592163,0.1689453125,-0.435546875,0.11102472923955059,0.0229939546271184,0.06078610600844909,0.018562875541994442,0.4828177904091054,0.4800921203183955
1624633978.441622,0.029936996162832748,7.663291286520965e-06,5.86,5.04,0.4372307360172272,-0.016401709988713264,3.658536672592163,0.1689453125,-0.435546875,0.11102472923955059,0.0229939546271184,0.06078610600844909,0.018562875541994442,0.4828177904091054,0.4800921203183955
1624633978.501622,0.03468819779554204,3.336230787054872e-06,5.86,5.04,0.5175327658653259,-0.0022476199083030224,3.658536672592163,0.1689453125,-0.435546875,0.11937740688434832,0.023564790578388558,0.07163060347433897,0.020684292948198648,0.48130674965164555,0.4813516103862185
1624633978.501622,0.03468819779554204,3.336230787054872e-06,5.86,5.04,0.5175327658653259,-0.0022476199083030224,3.658536672592163,0.1689453125,-0.435546875,0.11937740688434832,0.023564790578388558,0.07163060347433897,0.020684292948198648,0.48130674965164555,0.4813516103862185
1624633978.501622,0.03468819779554204,3.336230787054872e-06,5.86,5.04,0.5175327658653259,-0.0022476199083030224,3.170731782913208,-0.232421875,0.02685546875,0.11937740688434832,0.023564790578388558,0.07163060347433897,0.020684292948198648,0.48130674965164555,0.4813516103862185
1624633978.501622,0.03468819779554204,3.336230787054872e-06,5.86,5.04,0.5175327658653259,-0.0022476199083030224,3.170731782913208,-0.232421875,0.02685546875,0.11937740688434832,0.023564790578388558,0.07163060347433897,0.020684292948198648,0.48130674965164555,0.4813516103862185
1624633978.501622,0.03468819779554204,3.336230787054872e-06,5.86,5.04,0.5175327658653259,-0.0022476199083030224,3.170731782913208,-0.232421875,0.02685546875,0.11937740688434832,0.023564790578388558,0.07163060347433897,0.020684292948198648,0.48130674965164555,0.4813516103862185
1624633978.5616221,0.03973807946796916,-6.484512100493212e-06,5.85,5.01,0.5175327658653259,-0.0022476199083030224,3.170731782913208,-0.232421875,0.02685546875,0.13293718339170632,0.022038619245065557,0.08334004594912943,0.02108212855145756,0.4805630906766545,0.48247820096513633
1624633978.5616221,0.03973807946796916,-6.484512100493212e-06,5.85,5.01,0.5432449579238892,-0.01859479770064354,3.170731782913208,-0.232421875,0.02685546875,0.13293718339170632,0.022038619245065557,0.08334004594912943,0.02108212855145756,0.4805630906766545,0.48247820096513633
1624633978.5616221,0.03973807946796916,-6.484512100493212e-06,5.85,5.01,0.5432449579238892,-0.01859479770064354,3.170731782913208,-0.232421875,0.02685546875,0.13293718339170632,0.022038619245065557,0.08334004594912943,0.02108212855145756,0.4805630906766545,0.48247820096513633
1624633978.5616221,0.03973807946796916,-6.484512100493212e-06,5.85,5.01,0.5432449579238892,-0.01859479770064354,3.170731782913208,-0.232421875,0.02685546875,0.13293718339170632,0.022038619245065557,0.08334004594912943,0.02108212855145756,0.4805630906766545,0.48247820096513633
1624633978.5616221,0.03973807946796916,-6.484512100493212e-06,5.85,5.01,0.5432449579238892,-0.01859479770064354,3.170731782913208,-0.232421875,0.02685546875,0.13293718339170632,0.022038619245065557,0.08334004594912943,0.02108212855145756,0.4805630906766545,0.48247820096513633
1624633978.621622,0.04524811427767889,-2.0342938242677178e-05,5.85,5.01,0.5432449579238892,-0.01859479770064354,3.170731782913208,-0.232421875,0.02685546875,0.14948254083242887,0.013579781475014008,0.09624518615788723,0.017814154343680205,0.47974818475953673,0.48320537281295695
1624633978.621622,0.04524811427767889,-2.0342938242677178e-05,5.85,5.01,0.5432449579238892,-0.01859479770064354,3.170731782913208,-0.232421875,0.02685546875,0.14948254083242887,0.013579781475014008,0.09624518615788723,0.017814154343680205,0.47974818475953673,0.48320537281295695
1624633978.621622,0.04524811427767889,-2.0342938242677178e-05,5.85,5.01,0.5367133617401123,0.03153654560446739,1.7682926654815674,-0.10107421875,0.044921875,0.14948254083242887,0.013579781475014008,0.09624518615788723,0.017814154343680205,0.47974818475953673,0.48320537281295695
1624633978.621622,0.04524811427767889,-2.0342938242677178e-05,5.85,5.01,0.5367133617401123,0.03153654560446739,1.7682926654815674,-0.10107421875,0.044921875,0.14948254083242887,0.013579781475014008,0.09624518615788723,0.017814154343680205,0.47974818475953673,0.48320537281295695
1624633978.621622,0.04524811427767889,-2.0342938242677178e-05,5.84,5.0,0.5367133617401123,0.03153654560446739,1.7682926654815674,-0.10107421875,0.044921875,0.14948254083242887,0.013579781475014008,0.09624518615788723,0.017814154343680205,0.47974818475953673,0.48320537281295695
1624633978.621622,0.049197270862857315,-3.0286759293989666e-05,5.84,5.0,0.5367133617401123,0.03153654560446739,1.7682926654815674,-0.10107421875,0.044921875,0.14948254083242887,0.013579781475014008,0.10378570376960673,0.016480857652146925,0.47974818475953673,0.4828712493209272
1624633978.621622,0.049197270862857315,-3.0286759293989666e-05,5.84,5.0,0.5367133617401123,0.03153654560446739,1.7682926654815674,-0.10107421875,0.044921875,0.14948254083242887,0.013579781475014008,0.10378570376960673,0.016480857652146925,0.47974818475953673,0.4828712493209272
1624633978.621622,0.049197270862857315,-3.0286759293989666e-05,5.84,5.0,0.5367133617401123,0.03153654560446739,1.7682926654815674,-0.10107421875,0.044921875,0.14948254083242887,0.013579781475014008,0.10378570376960673,0.016480857652146925,0.47974818475953673,0.4828712493209272
1624633978.621622,0.049197270862857315,-3.0286759293989666e-05,5.84,5.0,0.519378662109375,-0.016415173187851906,1.7682926654815674,-0.10107421875,0.044921875,0.14948254083242887,0.013579781475014008,0.10378570376960673,0.016480857652146925,0.47974818475953673,0.4828712493209272
1624633978.621622,0.049197270862857315,-3.0286759293989666e-05,5.84,5.0,0.519378662109375,-0.016415173187851906,1.7682926654815674,-0.10107421875,0.044921875,0.14948254083242887,0.013579781475014008,0.10378570376960673,0.016480857652146925,0.47974818475953673,0.4828712493209272
1624633978.6836221,0.053818605872896184,-4.195773626387828e-05,5.84,5.0,0.519378662109375,-0.016415173187851906,1.7682926654815674,-0.10107421875,0.044921875,0.16564197732887725,0.011379585323472958,0.11563897858505963,0.014244589348673245,0.4800000553015323,0.4834537120540213
1624633978.6836221,0.053818605872896184,-4.195773626387828e-05,5.84,5.0,0.519378662109375,-0.016415173187851906,1.7682926654815674,-0.10107421875,0.044921875,0.16564197732887725,0.011379585323472958,0.11563897858505963,0.014244589348673245,0.4800000553015323,0.4834537120540213
1624633978.6836221,0.053818605872896184,-4.195773626387828e-05,5.84,5.0,0.519378662109375,-0.016415173187851906,2.195122003555298,0.2041015625,0.19921875,0.16564197732887725,0.011379585323472958,0.11563897858505963,0.014244589348673245,0.4800000553015323,0.4834537120540213
1624633978.6836221,0.053818605872896184,-4.195773626387828e-05,5.84,5.0,0.49833598732948303,-0.03377212584018707,2.195122003555298,0.2041015625,0.19921875,0.16564197732887725,0.011379585323472958,0.11563897858505963,0.014244589348673245,0.4800000553015323,0.4834537120540213
1624633978.6836221,0.053818605872896184,-4.195773626387828e-05,5.84,5.0,0.49833598732948303,-0.03377212584018707,2.195122003555298,0.2041015625,0.19921875,0.16564197732887725,0.011379585323472958,0.11563897858505963,0.014244589348673245,0.4800000553015323,0.4834537120540213
1624633978.741622,0.05885678682696355,-5.400078524105242e-05,5.83,4.96,0.49833598732948303,-0.03377212584018707,2.195122003555298,0.2041015625,0.19921875,0.18074167605418898,0.010665926652277386,0.12835125264393057,0.012792562368553376,0.4795243517122454,0.48375304389515156
1624633978.741622,0.05885678682696355,-5.400078524105242e-05,5.83,4.96,0.49833598732948303,-0.03377212584018707,2.195122003555298,0.2041015625,0.19921875,0.18074167605418898,0.010665926652277386,0.12835125264393057,0.012792562368553376,0.4795243517122454,0.48375304389515156
1624633978.741622,0.05885678682696355,-5.400078524105242e-05,5.83,4.96,0.49833598732948303,-0.03377212584018707,2.195122003555298,0.2041015625,0.19921875,0.18074167605418898,0.010665926652277386,0.12835125264393057,0.012792562368553376,0.4795243517122454,0.48375304389515156
1624633978.741622,0.05885678682696355,-5.400078524105242e-05,5.83,4.96,0.49833598732948303,-0.03377212584018707,2.195122003555298,0.2041015625,0.19921875,0.18074167605418898,0.010665926652277386,0.12835125264393057,0.012792562368553376,0.4795243517122454,0.48375304389515156
1624633978.741622,0.05885678682696355,-5.400078524105242e-05,5.83,4.96,0.49833598732948303,-0.03377212584018707,2.195122003555298,0.2041015625,0.19921875,0.18074167605418898,0.010665926652277386,0.12835125264393057,0.012792562368553376,0.4795243517122454,0.48375304389515156
1624633978.8016222,0.06399112094498131,-6.648401099622312e-05,5.83,4.96,0.5038304924964905,-0.01640918478369713,2.195122003555298,0.2041015625,0.19921875,0.19332042170722075,0.0045715945006632175,0.14166114967578664,0.009037760922131918,0.47856140845776607,0.4836616473492872
1624633978.8016222,0.06399112094498131,-6.648401099622312e-05,5.83,4.96,0.5038304924964905,-0.01640918478369713,2.195122003555298,0.2041015625,0.19921875,0.19332042170722075,0.0045715945006632175,0.14166114967578664,0.009037760922131918,0.47856140845776607,0.4836616473492872
1624633978.8016222,0.06399112094498131,-6.648401099622312e-05,5.83,4.96,0.5038304924964905,-0.01640918478369713,1.8292683362960815,0.3935546875,-0.42041015625,0.19332042170722075,0.0045715945006632175,0.14166114967578664,0.009037760922131918,0.47856140845776607,0.4836616473492872
1624633978.8016222,0.06399112094498131,-6.648401099622312e-05,5.83,4.96,0.5038304924964905,-0.01640918478369713,1.8292683362960815,0.3935546875,-0.42041015625,0.19332042170722075,0.0045715945006632175,0.14166114967578664,0.009037760922131918,0.47856140845776607,0.4836616473492872
1624633978.8016222,0.06399112094498131,-6.648401099622312e-05,5.84,4.92,0.5038304924964905,-0.01640918478369713,1.8292683362960815,0.3935546875,-0.42041015625,0.19332042170722075,0.0045715945006632175,0.14166114967578664,0.009037760922131918,0.47856140845776607,0.4836616473492872
1624633978.861622,0.06894813886099097,-7.940361383456236e-05,5.84,4.92,0.4843754470348358,-0.01417608093470335,1.8292683362960815,0.3935546875,-0.42041015625,0.20368279128985511,0.004222797585760762,0.15495195809633222,0.007028749400365121,0.4774220766350977,0.48327543448793436
1624633978.861622,0.06894813886099097,-7.940361383456236e-05,5.84,4.92,0.4843754470348358,-0.01417608093470335,1.8292683362960815,0.3935546875,-0.42041015625,0.20368279128985511,0.004222797585760762,0.15495195809633222,0.007028749400365121,0.4774220766350977,0.48327543448793436
1624633978.861622,0.06894813886099097,-7.940361383456236e-05,5.84,4.92,0.4843754470348358,-0.01417608093470335,1.8292683362960815,0.3935546875,-0.42041015625,0.20368279128985511,0.004222797585760762,0.15495195809633222,0.007028749400365121,0.4774220766350977,0.48327543448793436
1624633978.861622,0.06894813886099097,-7.940361383456236e-05,5.84,4.92,0.4843754470348358,-0.01417608093470335,1.8292683362960815,0.3935546875,-0.42041015625,0.20368279128985511,0.004222797585760762,0.15495195809633222,0.007028749400365121,0.4774220766350977,0.48327543448793436
1624633978.861622,0.06894813886099097,-7.940361383456236e-05,5.84,4.92,0.4843754470348358,-0.01417608093470335,1.8292683362960815,0.3935546875,-0.42041015625,0.20368279128985511,0.004222797585760762,0.15495195809633222,0.007028749400365121,0.4774220766350977,0.48327543448793436
1624633978.921622,0.07353071544446893,-9.173028526843262e-05,5.84,4.92,0.4843754470348358,-0.01417608093470335,1.8292683362960815,0.3935546875,-0.42041015625,0.21215204909461474,0.0059674977139076955,0.16783888976491687,0.006322823606639636,0.47701045093590355,0.48276393655331373
1624633978.921622,0.07353071544446893,-9.173028526843262e-05,5.84,4.92,0.5143872499465942,-0.0011944147991016507,1.8292683362960815,0.3935546875,-0.42041015625,0.21215204909461474,0.0059674977139076955,0.16783888976491687,0.006322823606639636,0.47701045093590355,0.48276393655331373
1624633978.921622,0.07353071544446893,-9.173028526843262e-05,5.84,4.92,0.5143872499465942,-0.0011944147991016507,-0.24390244483947754,0.302734375,-0.154296875,0.21215204909461474,0.0059674977139076955,0.16783888976491687,0.006322823606639636,0.47701045093590355,0.48276393655331373
1624633978.921622,0.07353071544446893,-9.173028526843262e-05,5.84,4.92,0.5143872499465942,-0.0011944147991016507,-0.24390244483947754,0.302734375,-0.154296875,0.21215204909461474,0.0059674977139076955,0.16783888976491687,0.006322823606639636,0.47701045093590355,0.48276393655331373
1624633978.921622,0.07353071544446893,-9.173028526843262e-05,5.84,4.88,0.5143872499465942,-0.0011944147991016507,-0.24390244483947754,0.302734375,-0.154296875,0.21215204909461474,0.0059674977139076955,0.16783888976491687,0.006322823606639636,0.47701045093590355,0.48276393655331373
1624633978.921622,0.07681590807497052,-0.0001005661824040974,5.84,4.88,0.5143872499465942,-0.0011944147991016507,-0.24390244483947754,0.302734375,-0.154296875,0.21215204909461474,0.0059674977139076955,0.17411169073695906,0.0060796314659538825,0.47701045093590355,0.4820754623419647
1624633978.921622,0.07681590807497052,-0.0001005661824040974,5.84,4.88,0.5143872499465942,-0.0011944147991016507,-0.24390244483947754,0.302734375,-0.154296875,0.21215204909461474,0.0059674977139076955,0.17411169073695906,0.0060796314659538825,0.47701045093590355,0.4820754623419647
1624633978.921622,0.07681590807497052,-0.0001005661824040974,5.84,4.88,0.5143872499465942,-0.0011944147991016507,-0.24390244483947754,0.302734375,-0.154296875,0.21215204909461474,0.0059674977139076955,0.17411169073695906,0.0060796314659538825,0.47701045093590355,0.4820754623419647
1624633978.921622,0.07681590807497052,-0.0001005661824040974,5.84,4.88,0.5074623227119446,0.017374981194734573,-0.24390244483947754,0.302734375,-0.154296875,0.21215204909461474,0.0059674977139076955,0.17411169073695906,0.0060796314659538825,0.47701045093590355,0.4820754623419647
1624633978.921622,0.07681590807497052,-0.0001005661824040974,5.84,4.88,0.5074623227119446,0.017374981194734573,-0.24390244483947754,0.302734375,-0.154296875,0.21945123745270972,0.010045108537092565,0.17411169073695906,0.0060796314659538825,0.47692110309047514,0.4820754623419647
1624633978.981622,0.08000437678567493,-0.0001087085949805119,5.84,4.88,0.5074623227119446,0.017374981194734573,-0.24390244483947754,0.302734375,-0.154296875,0.21945123745270972,0.010045108537092565,0.18479340030409971,0.007568142112768147,0.47692110309047514,0.4817576275691496
1624633978.981622,0.08000437678567493,-0.0001087085949805119,5.84,4.88,0.5074623227119446,0.017374981194734573,-0.6707317233085632,-0.31591796875,-0.00634765625,0.21945123745270972,0.010045108537092565,0.18479340030409971,0.007568142112768147,0.47692110309047514,0.4817576275691496
1624633978.981622,0.08000437678567493,-0.0001087085949805119,5.84,4.88,0.5074623227119446,0.017374981194734573,-0.6707317233085632,-0.31591796875,-0.00634765625,0.21945123745270972,0.010045108537092565,0.18479340030409971,0.007568142112768147,0.47692110309047514,0.4817576275691496
1624633978.981622,0.08000437678567493,-0.0001087085949805119,5.84,4.88,0.5014427900314331,0.0336991548538208,-0.6707317233085632,-0.31591796875,-0.00634765625,0.21945123745270972,0.010045108537092565,0.18479340030409971,0.007568142112768147,0.47692110309047514,0.4817576275691496
1624633978.981622,0.08000437678567493,-0.0001087085949805119,5.83,4.84,0.5014427900314331,0.0336991548538208,-0.6707317233085632,-0.31591796875,-0.00634765625,0.21945123745270972,0.010045108537092565,0.18479340030409971,0.007568142112768147,0.47692110309047514,0.4817576275691496
1624633979.0416222,0.08296396576796336,-0.00011496479831450972,5.83,4.84,0.5014427900314331,0.0336991548538208,-0.6707317233085632,-0.31591796875,-0.00634765625,0.2259711534598911,0.00942944284115533,0.1952270862115759,0.008088544920259599,0.4772204468122677,0.48146327975703995
1624633979.0416222,0.08296396576796336,-0.00011496479831450972,5.83,4.84,0.5014427900314331,0.0336991548538208,-0.6707317233085632,-0.31591796875,-0.00634765625,0.2259711534598911,0.00942944284115533,0.1952270862115759,0.008088544920259599,0.4772204468122677,0.48146327975703995
1624633979.0416222,0.08296396576796336,-0.00011496479831450972,5.83,4.84,0.5014427900314331,0.0336991548538208,-0.6707317233085632,-0.31591796875,-0.00634765625,0.2259711534598911,0.00942944284115533,0.1952270862115759,0.008088544920259599,0.4772204468122677,0.48146327975703995
1624633979.0416222,0.08296396576796336,-0.00011496479831450972,5.83,4.84,0.5014427900314331,0.0336991548538208,-0.6707317233085632,-0.31591796875,-0.00634765625,0.2259711534598911,0.00942944284115533,0.1952270862115759,0.008088544920259599,0.4772204468122677,0.48146327975703995
1624633979.0416222,0.08296396576796336,-0.00011496479831450972,5.83,4.84,0.5107718706130981,-0.03235471621155739,-0.6707317233085632,-0.31591796875,-0.00634765625,0.2259711534598911,0.00942944284115533,0.1952270862115759,0.008088544920259599,0.4772204468122677,0.48146327975703995
1624633979.101622,0.08561546748252814,-0.00011810673724966842,5.83,4.84,0.5107718706130981,-0.03235471621155739,-0.6707317233085632,-0.31591796875,-0.00634765625,0.2319104549742202,0.013076319687405807,0.20525451682157578,0.010099693579031229,0.47842243476592944,0.4814506313134617
1624633979.101622,0.08561546748252814,-0.00011810673724966842,5.83,4.84,0.5107718706130981,-0.03235471621155739,-0.6707317233085632,-0.31591796875,-0.00634765625,0.2319104549742202,0.013076319687405807,0.20525451682157578,0.010099693579031229,0.47842243476592944,0.4814506313134617
1624633979.101622,0.08561546748252814,-0.00011810673724966842,5.83,4.84,0.5107718706130981,-0.03235471621155739,0.3048780560493469,0.37939453125,-0.1142578125,0.2319104549742202,0.013076319687405807,0.20525451682157578,0.010099693579031229,0.47842243476592944,0.4814506313134617
1624633979.101622,0.08561546748252814,-0.00011810673724966842,5.83,4.84,0.5107718706130981,-0.03235471621155739,0.3048780560493469,0.37939453125,-0.1142578125,0.2319104549742202,0.013076319687405807,0.20525451682157578,0.010099693579031229,0.47842243476592944,0.4814506313134617
1624633979.101622,0.08561546748252814,-0.00011810673724966842,5.85,4.77,0.5107718706130981,-0.03235471621155739,0.3048780560493469,0.37939453125,-0.1142578125,0.23663396835814235,0.012265939194162011,0.20525451682157578,0.010099693579031229,0.47868784148546145,0.4814506313134617
1624633979.161622,0.08785249672835505,-0.00011801426922135238,5.85,4.77,0.49042102694511414,-0.03266885131597519,0.3048780560493469,0.37939453125,-0.1142578125,0.23663396835814235,0.012265939194162011,0.21465659587838318,0.010762013917107197,0.47868784148546145,0.4814649469141743
1624633979.161622,0.08785249672835505,-0.00011801426922135238,5.85,4.77,0.49042102694511414,-0.03266885131597519,0.3048780560493469,0.37939453125,-0.1142578125,0.23663396835814235,0.012265939194162011,0.21465659587838318,0.010762013917107197,0.47868784148546145,0.4814649469141743
1624633979.161622,0.08785249672835505,-0.00011801426922135238,5.85,4.77,0.49042102694511414,-0.03266885131597519,0.3048780560493469,0.37939453125,-0.1142578125,0.23663396835814235,0.012265939194162011,0.21465659587838318,0.010762013917107197,0.47868784148546145,0.4814649469141743
1624633979.161622,0.08785249672835505,-0.00011801426922135238,5.85,4.77,0.49042102694511414,-0.03266885131597519,0.3048780560493469,0.37939453125,-0.1142578125,0.23663396835814235,0.012265939194162011,0.21465659587838318,0.010762013917107197,0.47868784148546145,0.4814649469141743
1624633979.161622,0.08785249672835505,-0.00011801426922135238,5.85,4.77,0.49042102694511414,-0.03266885131597519,0.3048780560493469,0.37939453125,-0.1142578125,0.23809394941301998,0.0073926710074355235,0.21465659587838318,0.010762013917107197,0.47846199426327457,0.4814649469141743
1624633979.230862,0.08938314760711559,-0.00011538901204518661,5.85,4.77,0.49042102694511414,-0.03266885131597519,0.3048780560493469,0.37939453125,-0.1142578125,0.23809394941301998,0.0073926710074355235,0.22366545291074355,0.00921363454818276,0.47846199426327457,0.48137556002803517
1624633979.230862,0.08938314760711559,-0.00011538901204518661,5.85,4.77,0.41204702854156494,-0.03370910510420799,0.3048780560493469,0.37939453125,-0.1142578125,0.23809394941301998,0.0073926710074355235,0.22366545291074355,0.00921363454818276,0.47846199426327457,0.48137556002803517
1624633979.230862,0.08938314760711559,-0.00011538901204518661,5.85,4.77,0.41204702854156494,-0.03370910510420799,-0.5487805008888245,0.04052734375,0.02734375,0.23809394941301998,0.0073926710074355235,0.22366545291074355,0.00921363454818276,0.47846199426327457,0.48137556002803517
1624633979.230862,0.08938314760711559,-0.00011538901204518661,5.85,4.77,0.41204702854156494,-0.03370910510420799,-0.5487805008888245,0.04052734375,0.02734375,0.23809394941301998,0.0073926710074355235,0.22366545291074355,0.00921363454818276,0.47846199426327457,0.48137556002803517
1624633979.230862,0.08938314760711559,-0.00011538901204518661,5.86,4.74,0.41204702854156494,-0.03370910510420799,-0.5487805008888245,0.04052734375,0.02734375,0.23809394941301998,0.0073926710074355235,0.22366545291074355,0.00921363454818276,0.47846199426327457,0.48137556002803517
1624633979.230862,0.09047212841016371,-0.0001135265777032212,5.86,4.74,0.41204702854156494,-0.03370910510420799,-0.5487805008888245,0.04052734375,0.02734375,0.23809394941301998,0.0073926710074355235,0.2257471277661639,0.00861515162457115,0.47846199426327457,0.4808628692963595
1624633979.230862,0.09047212841016371,-0.0001135265777032212,5.86,4.74,0.41204702854156494,-0.03370910510420799,-0.5487805008888245,0.04052734375,0.02734375,0.23809394941301998,0.0073926710074355235,0.2257471277661639,0.00861515162457115,0.47846199426327457,0.4808628692963595
1624633979.230862,0.09047212841016371,-0.0001135265777032212,5.86,4.74,0.3217899203300476,-0.032906509935855865,-0.5487805008888245,0.04052734375,0.02734375,0.23809394941301998,0.0073926710074355235,0.2257471277661639,0.00861515162457115,0.47846199426327457,0.4808628692963595
1624633979.230862,0.09047212841016371,-0.0001135265777032212,5.86,4.74,0.3217899203300476,-0.032906509935855865,-0.5487805008888245,0.04052734375,0.02734375,0.23809394941301998,0.0073926710074355235,0.2257471277661639,0.00861515162457115,0.47846199426327457,0.4808628692963595
1624633979.230862,0.09047212841016371,-0.0001135265777032212,5.86,4.74,0.3217899203300476,-0.032906509935855865,-0.5487805008888245,0.04052734375,0.02734375,0.2374656554964741,0.006969991464118893,0.2257471277661639,0.00861515162457115,0.4772986037391056,0.4808628692963595
1624633979.296862,0.09093282209872129,-0.00011103003563749487,5.86,4.74,0.3217899203300476,-0.032906509935855865,-0.5487805008888245,0.04052734375,0.02734375,0.2374656554964741,0.006969991464118893,0.23259742800344638,0.007828529190646812,0.4772986037391056,0.48065634465905094
1624633979.296862,0.09093282209872129,-0.00011103003563749487,5.86,4.74,0.3217899203300476,-0.032906509935855865,3.0487804412841797,-0.03369140625,0.19091796875,0.2374656554964741,0.006969991464118893,0.23259742800344638,0.007828529190646812,0.4772986037391056,0.48065634465905094
1624633979.296862,0.09093282209872129,-0.00011103003563749487,5.86,4.74,0.3217899203300476,-0.032906509935855865,3.0487804412841797,-0.03369140625,0.19091796875,0.2374656554964741,0.006969991464118893,0.23259742800344638,0.007828529190646812,0.4772986037391056,0.48065634465905094
1624633979.296862,0.09093282209872129,-0.00011103003563749487,5.86,4.74,0.22173981368541718,-0.015296370722353458,3.0487804412841797,-0.03369140625,0.19091796875,0.2374656554964741,0.006969991464118893,0.23259742800344638,0.007828529190646812,0.4772986037391056,0.48065634465905094
1624633979.350862,0.09080778710174213,-0.00010800586725206145,5.86,4.7,0.22173981368541718,-0.015296370722353458,3.0487804412841797,-0.03369140625,0.19091796875,0.2359802684540855,0.006547405178895589,0.23726936663644463,0.007252482763450443,0.4767273818641359,0.4801350428878371
1624633979.350862,0.09080778710174213,-0.00010800586725206145,5.86,4.7,0.22173981368541718,-0.015296370722353458,3.0487804412841797,-0.03369140625,0.19091796875,0.2359802684540855,0.006547405178895589,0.23726936663644463,0.007252482763450443,0.4767273818641359,0.4801350428878371
1624633979.350862,0.09080778710174213,-0.00010800586725206145,5.86,4.7,0.22173981368541718,-0.015296370722353458,3.0487804412841797,-0.03369140625,0.19091796875,0.2359802684540855,0.006547405178895589,0.23726936663644463,0.007252482763450443,0.4767273818641359,0.4801350428878371
1624633979.350862,0.09080778710174213,-0.00010800586725206145,5.86,4.7,0.22173981368541718,-0.015296370722353458,3.0487804412841797,-0.03369140625,0.19091796875,0.2359802684540855,0.006547405178895589,0.23726936663644463,0.007252482763450443,0.4767273818641359,0.4801350428878371
1624633979.350862,0.09080778710174213,-0.00010800586725206145,5.86,4.7,0.22173981368541718,-0.015296370722353458,3.0487804412841797,-0.03369140625,0.19091796875,0.2359802684540855,0.006547405178895589,0.23726936663644463,0.007252482763450443,0.4767273818641359,0.4801350428878371
1624633979.410862,0.08958458129749847,-0.00010468189810385457,5.86,4.7,0.11928551644086838,0.015191434882581234,3.0487804412841797,-0.03369140625,0.19091796875,0.22815129490315694,-0.01209046611836053,0.2403843319018301,-0.0012864010654857084,0.47525717420001423,0.4789810312353202
1624633979.410862,0.08958458129749847,-0.00010468189810385457,5.86,4.7,0.11928551644086838,0.015191434882581234,3.0487804412841797,-0.03369140625,0.19091796875,0.22815129490315694,-0.01209046611836053,0.2403843319018301,-0.0012864010654857084,0.47525717420001423,0.4789810312353202
1624633979.410862,0.08958458129749847,-0.00010468189810385457,5.86,4.7,0.11928551644086838,0.015191434882581234,0.12195122241973877,-0.00830078125,0.11181640625,0.22815129490315694,-0.01209046611836053,0.2403843319018301,-0.0012864010654857084,0.47525717420001423,0.4789810312353202
1624633979.410862,0.08958458129749847,-0.00010468189810385457,5.86,4.7,0.11928551644086838,0.015191434882581234,0.12195122241973877,-0.00830078125,0.11181640625,0.22815129490315694,-0.01209046611836053,0.2403843319018301,-0.0012864010654857084,0.47525717420001423,0.4789810312353202
1624633979.410862,0.08958458129749847,-0.00010468189810385457,5.86,4.7,0.11928551644086838,0.015191434882581234,0.12195122241973877,-0.00830078125,0.11181640625,0.22815129490315694,-0.01209046611836053,0.2403843319018301,-0.0012864010654857084,0.47525717420001423,0.4789810312353202
1624633979.470862,0.08691094158962413,-0.0001004456645990497,5.86,4.66,0.11928551644086838,0.015191434882581234,0.12195122241973877,-0.00830078125,0.11181640625,0.2144793161359865,-0.011351684829054439,0.2403843319018301,-0.0012864010654857084,0.47483080470913563,0.4789810312353202
1624633979.470862,0.08691094158962413,-0.0001004456645990497,5.86,4.66,0.037231896072626114,-0.015256352722644806,0.12195122241973877,-0.00830078125,0.11181640625,0.2144793161359865,-0.011351684829054439,0.2403843319018301,-0.0012864010654857084,0.47483080470913563,0.4789810312353202
1624633979.470862,0.08691094158962413,-0.0001004456645990497,5.86,4.66,0.037231896072626114,-0.015256352722644806,0.12195122241973877,-0.00830078125,0.11181640625,0.2144793161359865,-0.011351684829054439,0.24065408626728235,-0.005070087128703228,0.47483080470913563,0.4777862537416769
1624633979.470862,0.08691094158962413,-0.0001004456645990497,5.86,4.66,0.037231896072626114,-0.015256352722644806,0.12195122241973877,-0.00830078125,0.11181640625,0.2144793161359865,-0.011351684829054439,0.24065408626728235,-0.005070087128703228,0.47483080470913563,0.4777862537416769
1624633979.470862,0.08691094158962413,-0.0001004456645990497,5.86,4.66,0.037231896072626114,-0.015256352722644806,0.12195122241973877,-0.00830078125,0.11181640625,0.2144793161359865,-0.011351684829054439,0.24065408626728235,-0.005070087128703228,0.47483080470913563,0.4777862537416769
1624633979.530862,0.08262440515591661,-9.515164915822102e-05,5.86,4.66,0.037231896072626114,-0.015256352722644806,0.12195122241973877,-0.00830078125,0.11181640625,0.19634065608642515,-0.007243699322357898,0.24065408626728235,-0.005070087128703228,0.474608900747633,0.4777862537416769
1624633979.530862,0.08262440515591661,-9.515164915822102e-05,5.86,4.66,0.037231896072626114,-0.015256352722644806,0.12195122241973877,-0.00830078125,0.11181640625,0.19634065608642515,-0.007243699322357898,0.24065408626728235,-0.005070087128703228,0.474608900747633,0.4777862537416769
1624633979.530862,0.08262440515591661,-9.515164915822102e-05,5.86,4.66,1.3383919394982513e-06,-1.245015755557688e-05,2.7439024448394775,-0.00927734375,0.03271484375,0.19634065608642515,-0.007243699322357898,0.23767328587008785,-0.006051987506869545,0.474608900747633,0.47675826163170526
1624633979.530862,0.08262440515591661,-9.515164915822102e-05,5.86,4.66,1.3383919394982513e-06,-1.245015755557688e-05,2.7439024448394775,-0.00927734375,0.03271484375,0.19634065608642515,-0.007243699322357898,0.23767328587008785,-0.006051987506869545,0.474608900747633,0.47675826163170526
1624633979.530862,0.08262440515591661,-9.515164915822102e-05,5.86,4.66,1.3383919394982513e-06,-1.245015755557688e-05,2.7439024448394775,-0.00927734375,0.03271484375,0.19634065608642515,-0.007243699322357898,0.23767328587008785,-0.006051987506869545,0.474608900747633,0.47675826163170526
1624633979.530862,0.07955505570193996,-9.136415854301697e-05,5.87,4.65,1.3383919394982513e-06,-1.245015755557688e-05,2.7439024448394775,-0.00927734375,0.03271484375,0.19634065608642515,-0.007243699322357898,0.23767328587008785,-0.006051987506869545,0.474608900747633,0.47675826163170526
1624633979.530862,0.07955505570193996,-9.136415854301697e-05,5.87,4.65,1.3383919394982513e-06,-1.245015755557688e-05,2.7439024448394775,-0.00927734375,0.03271484375,0.19634065608642515,-0.007243699322357898,0.23180496540788426,-0.006436680740824701,0.474608900747633,0.47633380407377773
1624633979.530862,0.07955505570193996,-9.136415854301697e-05,5.87,4.65,1.3383919394982513e-06,-1.245015755557688e-05,2.7439024448394775,-0.00927734375,0.03271484375,0.19634065608642515,-0.007243699322357898,0.23180496540788426,-0.006436680740824701,0.474608900747633,0.47633380407377773
1624633979.530862,0.07955505570193996,-9.136415854301697e-05,5.87,4.65,1.3383919394982513e-06,-1.245015755557688e-05,2.7439024448394775,-0.00927734375,0.03271484375,0.19634065608642515,-0.007243699322357898,0.23180496540788426,-0.006436680740824701,0.474608900747633,0.47633380407377773
1624633979.530862,0.07955505570193996,-9.136415854301697e-05,5.87,4.65,1.3383919394982513e-06,-1.245015755557688e-05,2.7439024448394775,-0.00927734375,0.03271484375,0.19634065608642515,-0.007243699322357898,0.23180496540788426,-0.006436680740824701,0.474608900747633,0.47633380407377773
1624633979.590862,0.07475663729783506,-8.645694844427447e-05,5.87,4.65,1.3383919394982513e-06,-1.245015755557688e-05,2.7439024448394775,-0.00927734375,0.03271484375,0.17534184552231175,-0.0025729196931232315,0.23180496540788426,-0.006436680740824701,0.47461382683073167,0.47633380407377773
1624633979.590862,0.07475663729783506,-8.645694844427447e-05,5.87,4.65,1.3383919394982513e-06,-1.245015755557688e-05,2.7439024448394775,-0.00927734375,0.03271484375,0.17534184552231175,-0.0025729196931232315,0.23180496540788426,-0.006436680740824701,0.47461382683073167,0.47633380407377773
1624633979.590862,0.07475663729783506,-8.645694844427447e-05,5.87,4.65,1.3383919394982513e-06,-1.245015755557688e-05,2.7439024448394775,-0.00927734375,0.03271484375,0.17534184552231175,-0.0025729196931232315,0.22742925594270103,-0.004871685336152047,0.47461382683073167,0.4757341717814814
1624633979.590862,0.07475663729783506,-8.645694844427447e-05,5.87,4.65,1.3383919394982513e-06,-1.245015755557688e-05,2.195122003555298,-0.0087890625,-0.03125,0.17534184552231175,-0.0025729196931232315,0.22742925594270103,-0.004871685336152047,0.47461382683073167,0.4757341717814814
1624633979.590862,0.07475663729783506,-8.645694844427447e-05,5.87,4.65,1.3383919394982513e-06,-1.245015755557688e-05,2.195122003555298,-0.0087890625,-0.03125,0.17534184552231175,-0.0025729196931232315,0.22742925594270103,-0.004871685336152047,0.47461382683073167,0.4757341717814814
1624633979.650862,0.06844876103448724,-8.080245117460071e-05,5.87,4.63,1.3383919394982513e-06,-1.245015755557688e-05,2.195122003555298,-0.0087890625,-0.03125,0.15442440778739722,-0.002412136608906961,0.22742925594270103,-0.004871685336152047,0.47459948234718224,0.4757341717814814
1624633979.650862,0.06844876103448724,-8.080245117460071e-05,5.87,4.63,1.3383919394982513e-06,-1.245015755557688e-05,2.195122003555298,-0.0087890625,-0.03125,0.15442440778739722,-0.002412136608906961,0.22742925594270103,-0.004871685336152047,0.47459948234718224,0.4757341717814814
1624633979.650862,0.06844876103448724,-8.080245117460071e-05,5.87,4.63,1.3383919394982513e-06,-1.245015755557688e-05,2.195122003555298,-0.0087890625,-0.03125,0.15442440778739722,-0.002412136608906961,0.2198972115382565,-0.004007361593514744,0.47459948234718224,0.4752967753916142
1624633979.650862,0.06844876103448724,-8.080245117460071e-05,5.87,4.63,1.3383919394982513e-06,-1.245015755557688e-05,2.195122003555298,-0.0087890625,-0.03125,0.15442440778739722,-0.002412136608906961,0.2198972115382565,-0.004007361593514744,0.47459948234718224,0.4752967753916142
1624633979.650862,0.06844876103448724,-8.080245117460071e-05,5.87,4.63,1.3383919394982513e-06,-1.245015755557688e-05,2.195122003555298,-0.0087890625,-0.03125,0.15442440778739722,-0.002412136608906961,0.2198972115382565,-0.004007361593514744,0.47459948234718224,0.4752967753916142
1624633979.710862,0.061012200754837514,-7.452709701883342e-05,5.87,4.63,1.3718517948291264e-06,-1.2761411198880523e-05,2.195122003555298,-0.0087890625,-0.03125,0.13510237997792207,0.0003879148169210989,0.2198972115382565,-0.004007361593514744,0.47468896814318284,0.4752967753916142
1624633979.710862,0.061012200754837514,-7.452709701883342e-05,5.87,4.63,1.3718517948291264e-06,-1.2761411198880523e-05,2.195122003555298,-0.0087890625,-0.03125,0.13510237997792207,0.0003879148169210989,0.2198972115382565,-0.004007361593514744,0.47468896814318284,0.4752967753916142
1624633979.710862,0.061012200754837514,-7.452709701883342e-05,5.87,4.63,1.3718517948291264e-06,-1.2761411198880523e-05,2.195122003555298,-0.0087890625,-0.03125,0.13510237997792207,0.0003879148169210989,0.2198972115382565,-0.004007361593514744,0.47468896814318284,0.4752967753916142
1624633979.710862,0.061012200754837514,-7.452709701883342e-05,5.87,4.63,1.3718517948291264e-06,-1.2761411198880523e-05,1.3414634466171265,-0.01171875,0.0048828125,0.13510237997792207,0.0003879148169210989,0.2198972115382565,-0.004007361593514744,0.47468896814318284,0.4752967753916142
1624633979.710862,0.061012200754837514,-7.452709701883342e-05,5.87,4.61,1.3718517948291264e-06,-1.2761411198880523e-05,1.3414634466171265,-0.01171875,0.0048828125,0.13510237997792207,0.0003879148169210989,0.2198972115382565,-0.004007361593514744,0.47468896814318284,0.4752967753916142
1624633979.7708619,0.052841656069554564,-6.789448161838616e-05,5.87,4.61,1.3383919394982513e-06,-1.245015755557688e-05,1.3414634466171265,-0.01171875,0.0048828125,0.11765041905312483,0.0003643401633424993,0.20983139193675304,-0.00213337564280856,0.47470531537555133,0.47506352166608684
1624633979.7708619,0.052841656069554564,-6.789448161838616e-05,5.87,4.61,1.3383919394982513e-06,-1.245015755557688e-05,1.3414634466171265,-0.01171875,0.0048828125,0.11765041905312483,0.0003643401633424993,0.20983139193675304,-0.00213337564280856,0.47470531537555133,0.47506352166608684
1624633979.7708619,0.052841656069554564,-6.789448161838616e-05,5.87,4.61,1.3383919394982513e-06,-1.245015755557688e-05,1.3414634466171265,-0.01171875,0.0048828125,0.11765041905312483,0.0003643401633424993,0.20983139193675304,-0.00213337564280856,0.47470531537555133,0.47506352166608684
1624633979.7708619,0.052841656069554564,-6.789448161838616e-05,5.87,4.61,1.3383919394982513e-06,-1.245015755557688e-05,1.3414634466171265,-0.01171875,0.0048828125,0.11765041905312483,0.0003643401633424993,0.20983139193675304,-0.00213337564280856,0.47470531537555133,0.47506352166608684
1624633979.7708619,0.052841656069554564,-6.789448161838616e-05,5.87,4.61,1.3383919394982513e-06,-1.245015755557688e-05,1.3414634466171265,-0.01171875,0.0048828125,0.11765041905312483,0.0003643401633424993,0.19790487184187291,-0.0012392904536741695,0.47470531537555133,0.4749285681501046
1624633979.830862,0.044308139061073296,-6.100576541580901e-05,5.87,4.61,1.3383919394982513e-06,-1.245015755557688e-05,1.3414634466171265,-0.01171875,0.0048828125,0.10231618048891872,0.0009670679155664593,0.19790487184187291,-0.0012392904536741695,0.47473582572537454,0.4749285681501046
1624633979.830862,0.044308139061073296,-6.100576541580901e-05,5.87,4.61,1.3383919394982513e-06,-1.245015755557688e-05,1.3414634466171265,-0.01171875,0.0048828125,0.10231618048891872,0.0009670679155664593,0.1847738073786266,-0.0003186157061677885,0.47473582572537454,0.47487614978830767
1624633979.830862,0.044308139061073296,-6.100576541580901e-05,5.87,4.61,1.3383919394982513e-06,-1.245015755557688e-05,1.402438998222351,-0.02001953125,0.00439453125,0.10231618048891872,0.0009670679155664593,0.1847738073786266,-0.0003186157061677885,0.47473582572537454,0.47487614978830767
1624633979.830862,0.044308139061073296,-6.100576541580901e-05,5.87,4.61,1.3383919394982513e-06,-1.245015755557688e-05,1.402438998222351,-0.02001953125,0.00439453125,0.10231618048891872,0.0009670679155664593,0.1847738073786266,-0.0003186157061677885,0.47473582572537454,0.47487614978830767
1624633979.830862,0.044308139061073296,-6.100576541580901e-05,5.87,4.6,1.3383919394982513e-06,-1.245015755557688e-05,1.402438998222351,-0.02001953125,0.00439453125,0.10231618048891872,0.0009670679155664593,0.1847738073786266,-0.0003186157061677885,0.47473582572537454,0.47487614978830767
1624633979.830862,0.03819264427880254,-5.6064734148698516e-05,5.87,4.6,1.3383919394982513e-06,-1.245015755557688e-05,1.402438998222351,-0.02001953125,0.00439453125,0.10231618048891872,0.0009670679155664593,0.1847738073786266,-0.0003186157061677885,0.47473582572537454,0.47487614978830767
1624633979.830862,0.03819264427880254,-5.6064734148698516e-05,5.87,4.6,1.3383919394982513e-06,-1.245015755557688e-05,1.402438998222351,-0.02001953125,0.00439453125,0.10231618048891872,0.0009670679155664593,0.1847738073786266,-0.0003186157061677885,0.47473582572537454,0.47487614978830767
1624633979.830862,0.03819264427880254,-5.6064734148698516e-05,5.87,4.6,1.3383919394982513e-06,-1.245015755557688e-05,1.402438998222351,-0.02001953125,0.00439453125,0.10231618048891872,0.0009670679155664593,0.1847738073786266,-0.0003186157061677885,0.47473582572537454,0.47487614978830767
1624633979.830862,0.03819264427880254,-5.6064734148698516e-05,5.87,4.6,1.3718517948291264e-06,-1.2761411198880523e-05,1.402438998222351,-0.02001953125,0.00439453125,0.10231618048891872,0.0009670679155664593,0.1847738073786266,-0.0003186157061677885,0.47473582572537454,0.47487614978830767
1624633979.830862,0.03819264427880254,-5.6064734148698516e-05,5.87,4.6,1.3718517948291264e-06,-1.2761411198880523e-05,1.402438998222351,-0.02001953125,0.00439453125,0.10231618048891872,0.0009670679155664593,0.1847738073786266,-0.0003186157061677885,0.47473582572537454,0.47487614978830767
1624633979.890862,0.0314154496243082,-5.0551295750477274e-05,5.87,4.6,1.3718517948291264e-06,-1.2761411198880523e-05,1.402438998222351,-0.02001953125,0.00439453125,0.08884388385771773,0.0010139546201941257,0.1730913806607194,5.8067094434470685e-05,0.4747438525083959,0.4748674073400304
1624633979.890862,0.0314154496243082,-5.0551295750477274e-05,5.87,4.6,1.3718517948291264e-06,-1.2761411198880523e-05,1.4634146690368652,-0.01708984375,-0.00244140625,0.08884388385771773,0.0010139546201941257,0.1730913806607194,5.8067094434470685e-05,0.4747438525083959,0.4748674073400304
1624633979.890862,0.0314154496243082,-5.0551295750477274e-05,5.87,4.6,1.3718517948291264e-06,-1.2761411198880523e-05,1.4634146690368652,-0.01708984375,-0.00244140625,0.08884388385771773,0.0010139546201941257,0.1730913806607194,5.8067094434470685e-05,0.4747438525083959,0.4748674073400304
1624633979.890862,0.0314154496243082,-5.0551295750477274e-05,5.87,4.6,1.3718517948291264e-06,-1.2761411198880523e-05,1.4634146690368652,-0.01708984375,-0.00244140625,0.08884388385771773,0.0010139546201941257,0.1730913806607194,5.8067094434470685e-05,0.4747438525083959,0.4748674073400304
1624633979.890862,0.0314154496243082,-5.0551295750477274e-05,5.87,4.6,1.3383919394982513e-06,-1.245015755557688e-05,1.4634146690368652,-0.01708984375,-0.00244140625,0.08884388385771773,0.0010139546201941257,0.1624704992610512,0.0004605693309443217,0.4747438525083959,0.47486540282763423
1624633979.950862,0.02431128242222888,-4.467190696844624e-05,5.87,4.6,1.3383919394982513e-06,-1.245015755557688e-05,1.4634146690368652,-0.01708984375,-0.00244140625,0.07706533194836815,0.0009504960617832193,0.15082943384370828,0.0006359865157444383,0.4747447458975304,0.47487486381485006
1624633979.950862,0.02431128242222888,-4.467190696844624e-05,5.87,4.6,1.3383919394982513e-06,-1.245015755557688e-05,1.4634146690368652,-0.01708984375,-0.00244140625,0.07706533194836815,0.0009504960617832193,0.15082943384370828,0.0006359865157444383,0.4747447458975304,0.47487486381485006
1624633979.950862,0.02431128242222888,-4.467190696844624e-05,5.87,4.6,1.3383919394982513e-06,-1.245015755557688e-05,1.4634146690368652,-0.01708984375,-0.00244140625,0.07706533194836815,0.0009504960617832193,0.15082943384370828,0.0006359865157444383,0.4747447458975304,0.47487486381485006
1624633979.950862,0.02431128242222888,-4.467190696844624e-05,5.87,4.6,1.3383919394982513e-06,-1.245015755557688e-05,1.4634146690368652,-0.01708984375,-0.00244140625,0.07706533194836815,0.0009504960617832193,0.15082943384370828,0.0006359865157444383,0.4747447458975304,0.47487486381485006
1624633979.950862,0.02431128242222888,-4.467190696844624e-05,5.87,4.6,1.3383919394982513e-06,-1.245015755557688e-05,1.4634146690368652,-0.01708984375,-0.00244140625,0.07706533194836815,0.0009504960617832193,0.15082943384370828,0.0006359865157444383,0.4747447458975304,0.47487486381485006
1624633980.0108619,0.017166505819933064,-3.8591256911202595e-05,5.87,4.6,1.3383919394982513e-06,-1.245015755557688e-05,1.4634146690368652,-0.01708984375,-0.00244140625,0.06687867465593267,0.0008998722568315302,0.15082943384370828,0.0006359865157444383,0.47474424399986753,0.47487486381485006
1624633980.0108619,0.017166505819933064,-3.8591256911202595e-05,5.87,4.6,1.3383919394982513e-06,-1.245015755557688e-05,1.4634146690368652,-0.01708984375,-0.00244140625,0.06687867465593267,0.0008998722568315302,0.15082943384370828,0.0006359865157444383,0.47474424399986753,0.47487486381485006
1624633980.0108619,0.017166505819933064,-3.8591256911202595e-05,5.87,4.6,1.3383919394982513e-06,-1.245015755557688e-05,1.402438998222351,-0.013671875,0.015625,0.06687867465593267,0.0008998722568315302,0.15082943384370828,0.0006359865157444383,0.47474424399986753,0.47487486381485006
1624633980.0108619,0.017166505819933064,-3.8591256911202595e-05,5.87,4.6,1.3383919394982513e-06,-1.245015755557688e-05,1.402438998222351,-0.013671875,0.015625,0.06687867465593267,0.0008998722568315302,0.15082943384370828,0.0006359865157444383,0.47474424399986753,0.47487486381485006
1624633980.0108619,0.017166505819933064,-3.8591256911202595e-05,5.87,4.6,1.3383919394982513e-06,-1.245015755557688e-05,1.402438998222351,-0.013671875,0.015625,0.06687867465593267,0.0008998722568315302,0.13867874644242897,0.0007429240153973266,0.47474424399986753,0.4748893360855391
1624633980.070862,0.010198041306955587,-3.2462072703431615e-05,5.87,4.59,1.3383919394982513e-06,-1.245015755557688e-05,1.402438998222351,-0.013671875,0.015625,0.057980849580891426,0.0008430135940306013,0.13867874644242897,0.0007429240153973266,0.4747420892872581,0.4748893360855391
1624633980.070862,0.010198041306955587,-3.2462072703431615e-05,5.87,4.59,1.3383919394982513e-06,-1.245015755557688e-05,1.402438998222351,-0.013671875,0.015625,0.057980849580891426,0.0008430135940306013,0.13867874644242897,0.0007429240153973266,0.4747420892872581,0.4748893360855391
1624633980.070862,0.010198041306955587,-3.2462072703431615e-05,5.87,4.59,1.3383919394982513e-06,-1.245015755557688e-05,1.402438998222351,-0.013671875,0.015625,0.057980849580891426,0.0008430135940306013,0.13867874644242897,0.0007429240153973266,0.4747420892872581,0.4748893360855391
1624633980.070862,0.010198041306955587,-3.2462072703431615e-05,5.87,4.59,1.3383919394982513e-06,-1.245015755557688e-05,1.402438998222351,-0.013671875,0.015625,0.057980849580891426,0.0008430135940306013,0.13867874644242897,0.0007429240153973266,0.4747420892872581,0.4748893360855391
1624633980.070862,0.010198041306955587,-3.2462072703431615e-05,5.87,4.59,1.3383919394982513e-06,-1.245015755557688e-05,1.402438998222351,-0.013671875,0.015625,0.05029656552075752,0.0009235173241591541,0.12642077807251445,0.0007723221201386479,0.47474523125132156,0.4749035291674989
1624633980.130862,0.003566481070080037,-2.6391224911937346e-05,5.87,4.59,1.3383919394982513e-06,-1.245015755557688e-05,1.402438998222351,-0.013671875,0.015625,0.05029656552075752,0.0009235173241591541,0.12642077807251445,0.0007723221201386479,0.47474523125132156,0.4749035291674989
1624633980.130862,0.003566481070080037,-2.6391224911937346e-05,5.87,4.59,1.3383919394982513e-06,-1.245015755557688e-05,1.402438998222351,-0.013671875,0.015625,0.05029656552075752,0.0009235173241591541,0.12642077807251445,0.0007723221201386479,0.47474523125132156,0.4749035291674989
1624633980.130862,0.003566481070080037,-2.6391224911937346e-05,5.87,4.59,1.3383919394982513e-06,-1.245015755557688e-05,1.402438998222351,-0.0078125,0.001953125,0.05029656552075752,0.0009235173241591541,0.12642077807251445,0.0007723221201386479,0.47474523125132156,0.4749035291674989
1624633980.130862,0.003566481070080037,-2.6391224911937346e-05,5.87,4.59,1.3383919394982513e-06,-1.245015755557688e-05,1.402438998222351,-0.0078125,0.001953125,0.05029656552075752,0.0009235173241591541,0.12642077807251445,0.0007723221201386479,0.47474523125132156,0.4749035291674989
1624633980.130862,0.003566481070080037,-2.6391224911937346e-05,5.87,4.6,1.3383919394982513e-06,-1.245015755557688e-05,1.402438998222351,-0.0078125,0.001953125,0.05029656552075752,0.0009235173241591541,0.11436924332950853,0.0008274169678992388,0.47474523125132156,0.47492029906801747
1624633980.130862,-0.0011863617280825699,-2.203992994108719e-05,5.87,4.6,1.3383919394982513e-06,-1.245015755557688e-05,1.402438998222351,-0.0078125,0.001953125,0.05029656552075752,0.0009235173241591541,0.11436924332950853,0.0008274169678992388,0.47474523125132156,0.47492029906801747
1624633980.130862,-0.0011863617280825699,-2.203992994108719e-05,5.87,4.6,1.3383919394982513e-06,-1.245015755557688e-05,1.402438998222351,-0.0078125,0.001953125,0.05029656552075752,0.0009235173241591541,0.11436924332950853,0.0008274169678992388,0.47474523125132156,0.47492029906801747
1624633980.130862,-0.0011863617280825699,-2.203992994108719e-05,5.87,4.6,1.3383919394982513e-06,-1.245015755557688e-05,1.402438998222351,-0.0078125,0.001953125,0.05029656552075752,0.0009235173241591541,0.11436924332950853,0.0008274169678992388,0.47474523125132156,0.47492029906801747
1624633980.130862,-0.0011863617280825699,-2.203992994108719e-05,5.87,4.6,0.0179364625364542,-0.01635962724685669,1.402438998222351,-0.0078125,0.001953125,0.05029656552075752,0.0009235173241591541,0.11436924332950853,0.0008274169678992388,0.47474523125132156,0.47492029906801747
1624633980.130862,-0.0011863617280825699,-2.203992994108719e-05,5.87,4.6,0.0179364625364542,-0.01635962724685669,1.402438998222351,-0.0078125,0.001953125,0.06843374175235266,0.000968811551119303,0.1052933657956903,0.0008516475473031817,0.47474827553741616,0.47489736176301667
1624633980.192862,-0.00407725382851767,-1.7374091257714767e-05,5.87,4.6,0.0179364625364542,-0.01635962724685669,1.6463414430618286,-0.04052734375,-0.06298828125,0.06843374175235266,0.000968811551119303,0.1052933657956903,0.0008516475473031817,0.47474827553741616,0.47489736176301667
1624633980.192862,-0.00407725382851767,-1.7374091257714767e-05,5.87,4.6,0.0179364625364542,-0.01635962724685669,1.6463414430618286,-0.04052734375,-0.06298828125,0.06843374175235266,0.000968811551119303,0.09971280681687948,0.0008956507059413526,0.47474827553741616,0.47492613735892697
1624633980.192862,-0.00407725382851767,-1.7374091257714767e-05,5.87,4.6,0.0179364625364542,-0.01635962724685669,1.6463414430618286,-0.04052734375,-0.06298828125,0.06843374175235266,0.000968811551119303,0.09971280681687948,0.0008956507059413526,0.47474827553741616,0.47492613735892697
1624633980.192862,-0.00407725382851767,-1.7374091257714767e-05,5.87,4.6,0.0179364625364542,-0.01635962724685669,1.6463414430618286,-0.04052734375,-0.06298828125,0.06843374175235266,0.000968811551119303,0.09971280681687948,0.0008956507059413526,0.47474827553741616,0.47492613735892697
1624633980.192862,-0.00407725382851767,-1.7374091257714767e-05,5.86,4.6,0.06489360332489014,-0.0011282251216471195,1.6463414430618286,-0.04052734375,-0.06298828125,0.06843374175235266,0.000968811551119303,0.09971280681687948,0.0008956507059413526,0.47474827553741616,0.47492613735892697
1624633980.276862,-0.004649785753020792,-1.2331269970618336e-05,5.86,4.6,0.06489360332489014,-0.0011282251216471195,1.6463414430618286,-0.04052734375,-0.06298828125,0.09260528934882348,0.0009211537243025778,0.09971280681687948,0.0008956507059413526,0.47458515305184773,0.47492613735892697
1624633980.276862,-0.004649785753020792,-1.2331269970618336e-05,5.86,4.6,0.06489360332489014,-0.0011282251216471195,1.6463414430618286,-0.04052734375,-0.06298828125,0.09260528934882348,0.0009211537243025778,0.09971280681687948,0.0008956507059413526,0.47458515305184773,0.47492613735892697
1624633980.276862,-0.004649785753020792,-1.2331269970618336e-05,5.86,4.6,0.06489360332489014,-0.0011282251216471195,1.6463414430618286,-0.04052734375,-0.06298828125,0.09260528934882348,0.0009211537243025778,0.09971280681687948,0.0008956507059413526,0.47458515305184773,0.47492613735892697
1624633980.276862,-0.004649785753020792,-1.2331269970618336e-05,5.86,4.6,0.06489360332489014,-0.0011282251216471195,1.6463414430618286,-0.04052734375,-0.06298828125,0.09260528934882348,0.0009211537243025778,0.09971280681687948,0.0008956507059413526,0.47458515305184773,0.47492613735892697
1624633980.276862,-0.004649785753020792,-1.2331269970618336e-05,5.86,4.6,0.06489360332489014,-0.0011282251216471195,1.6463414430618286,-0.04052734375,-0.06298828125,0.10012121046957875,0.0008917813556472704,0.09827706494360083,0.0009002525503956991,0.47466358767857586,0.47496331943874975
1624633980.310862,-0.004485121050037116,-7.620179728039533e-06,5.86,4.6,0.15263961255550385,0.03377171605825424,1.6463414430618286,-0.04052734375,-0.06298828125,0.10012121046957875,0.0008917813556472704,0.09827706494360083,0.0009002525503956991,0.47466358767857586,0.47496331943874975
1624633980.310862,-0.004485121050037116,-7.620179728039533e-06,5.86,4.6,0.15263961255550385,0.03377171605825424,1.4634146690368652,0.06591796875,-0.11474609375,0.10012121046957875,0.0008917813556472704,0.09827706494360083,0.0009002525503956991,0.47466358767857586,0.47496331943874975
1624633980.310862,-0.004485121050037116,-7.620179728039533e-06,5.86,4.6,0.15263961255550385,0.03377171605825424,1.4634146690368652,0.06591796875,-0.11474609375,0.10012121046957875,0.0008917813556472704,0.09827706494360083,0.0009002525503956991,0.47466358767857586,0.47496331943874975
1624633980.310862,-0.004485121050037116,-7.620179728039533e-06,5.86,4.6,0.15263961255550385,0.03377171605825424,1.4634146690368652,0.06591796875,-0.11474609375,0.10012121046957875,0.0008917813556472704,0.09827706494360083,0.0009002525503956991,0.47466358767857586,0.47496331943874975
1624633980.310862,-0.004485121050037116,-7.620179728039533e-06,5.86,4.55,0.15263961255550385,0.03377171605825424,1.4634146690368652,0.06591796875,-0.11474609375,0.1181044155204012,0.0008579333942390248,0.09843326854467183,0.0008882150612580436,0.4750867652731534,0.47494978277551647
1624633980.370862,-0.002805717139132255,-2.96711467426826e-06,5.86,4.55,0.26476240158081055,-0.015256352722644806,1.4634146690368652,0.06591796875,-0.11474609375,0.1181044155204012,0.0008579333942390248,0.09843326854467183,0.0008882150612580436,0.4750867652731534,0.47494978277551647
1624633980.370862,-0.002805717139132255,-2.96711467426826e-06,5.86,4.55,0.26476240158081055,-0.015256352722644806,1.4634146690368652,0.06591796875,-0.11474609375,0.1181044155204012,0.0008579333942390248,0.09843326854467183,0.0008882150612580436,0.4750867652731534,0.47494978277551647
1624633980.370862,-0.002805717139132255,-2.96711467426826e-06,5.86,4.55,0.26476240158081055,-0.015256352722644806,1.4634146690368652,0.06591796875,-0.11474609375,0.1181044155204012,0.0008579333942390248,0.09843326854467183,0.0008882150612580436,0.4750867652731534,0.47494978277551647
1624633980.370862,-0.002805717139132255,-2.96711467426826e-06,5.86,4.55,0.26476240158081055,-0.015256352722644806,1.4634146690368652,0.06591796875,-0.11474609375,0.1181044155204012,0.0008579333942390248,0.10137054294402485,0.0008805254129870303,0.4750867652731534,0.47501338846306673
1624633980.370862,-0.002805717139132255,-2.96711467426826e-06,5.86,4.55,0.26476240158081055,-0.015256352722644806,1.4634146690368652,0.06591796875,-0.11474609375,0.1181044155204012,0.0008579333942390248,0.10137054294402485,0.0008805254129870303,0.4750867652731534,0.47501338846306673
1624633980.430862,-0.0013016983008250188,1.6959005441968428e-06,5.86,4.55,0.26476240158081055,-0.015256352722644806,1.4634146690368652,0.06591796875,-0.11474609375,0.11876193747070643,0.007705311473018458,0.10137054294402485,0.0008805254129870303,0.47516482411388833,0.47501338846306673
1624633980.430862,-0.0013016983008250188,1.6959005441968428e-06,5.86,4.55,0.3766441345214844,-0.03277730196714401,1.4634146690368652,0.06591796875,-0.11474609375,0.11876193747070643,0.007705311473018458,0.10137054294402485,0.0008805254129870303,0.47516482411388833,0.47501338846306673
1624633980.430862,-0.0013016983008250188,1.6959005441968428e-06,5.86,4.55,0.3766441345214844,-0.03277730196714401,-1.2195122241973877,0.01318359375,-0.43701171875,0.11876193747070643,0.007705311473018458,0.10137054294402485,0.0008805254129870303,0.47516482411388833,0.47501338846306673
1624633980.430862,-0.0013016983008250188,1.6959005441968428e-06,5.86,4.55,0.3766441345214844,-0.03277730196714401,-1.2195122241973877,0.01318359375,-0.43701171875,0.11876193747070643,0.007705311473018458,0.10137054294402485,0.0008805254129870303,0.47516482411388833,0.47501338846306673
1624633980.430862,-0.0013016983008250188,1.6959005441968428e-06,5.86,4.54,0.3766441345214844,-0.03277730196714401,-1.2195122241973877,0.01318359375,-0.43701171875,0.11876193747070643,0.007705311473018458,0.10407620204756267,0.0036180136999692295,0.47516482411388833,0.47523793547622917
1624633980.430862,-0.0002207594439063212,5.052878189464239e-06,5.86,4.54,0.3766441345214844,-0.03277730196714401,-1.2195122241973877,0.01318359375,-0.43701171875,0.11876193747070643,0.007705311473018458,0.10407620204756267,0.0036180136999692295,0.47516482411388833,0.47523793547622917
1624633980.430862,-0.0002207594439063212,5.052878189464239e-06,5.86,4.54,0.3766441345214844,-0.03277730196714401,-1.2195122241973877,0.01318359375,-0.43701171875,0.11876193747070643,0.007705311473018458,0.10407620204756267,0.0036180136999692295,0.47516482411388833,0.47523793547622917
1624633980.430862,-0.0002207594439063212,5.052878189464239e-06,5.86,4.54,0.4840230643749237,0.017801694571971893,-1.2195122241973877,0.01318359375,-0.43701171875,0.11876193747070643,0.007705311473018458,0.10407620204756267,0.0036180136999692295,0.47516482411388833,0.47523793547622917
1624633980.430862,-0.0002207594439063212,5.052878189464239e-06,5.86,4.54,0.4840230643749237,0.017801694571971893,-1.2195122241973877,0.01318359375,-0.43701171875,0.11876193747070643,0.007705311473018458,0.10407620204756267,0.0036180136999692295,0.47516482411388833,0.47523793547622917
1624633980.430862,-0.0002207594439063212,5.052878189464239e-06,5.86,4.54,0.4840230643749237,0.017801694571971893,-1.2195122241973877,0.01318359375,-0.43701171875,0.12172744101249215,0.018581295793867563,0.10614174825114678,0.004783848373575992,0.47454043542739527,0.47528995759771175
1624633980.490862,0.000994185316324458,7.525577527736434e-06,5.86,4.54,0.4840230643749237,0.017801694571971893,-1.2195122241973877,0.01318359375,-0.43701171875,0.12172744101249215,0.018581295793867563,0.10614174825114678,0.004783848373575992,0.47454043542739527,0.47528995759771175
1624633980.490862,0.000994185316324458,7.525577527736434e-06,5.86,4.54,0.4840230643749237,0.017801694571971893,-4.390244007110596,-0.11083984375,-0.2265625,0.12172744101249215,0.018581295793867563,0.10614174825114678,0.004783848373575992,0.47454043542739527,0.47528995759771175
1624633980.490862,0.000994185316324458,7.525577527736434e-06,5.86,4.54,0.4840230643749237,0.017801694571971893,-4.390244007110596,-0.11083984375,-0.2265625,0.12172744101249215,0.018581295793867563,0.10614174825114678,0.004783848373575992,0.47454043542739527,0.47528995759771175
1624633980.490862,0.000994185316324458,7.525577527736434e-06,5.87,4.53,0.4840230643749237,0.017801694571971893,-4.390244007110596,-0.11083984375,-0.2265625,0.12172744101249215,0.018581295793867563,0.1084432864878837,0.010364042292827842,0.47454043542739527,0.47573814850141094
1624633980.550862,0.0027997798221833558,8.956563713770372e-06,5.87,4.53,0.5231497883796692,0.016254691407084465,-4.390244007110596,-0.11083984375,-0.2265625,0.13077482423679782,0.01743214067042584,0.1084432864878837,0.010364042292827842,0.4749042166029711,0.47573814850141094
1624633980.550862,0.0027997798221833558,8.956563713770372e-06,5.87,4.53,0.5231497883796692,0.016254691407084465,-4.390244007110596,-0.11083984375,-0.2265625,0.13077482423679782,0.01743214067042584,0.1084432864878837,0.010364042292827842,0.4749042166029711,0.47573814850141094
1624633980.550862,0.0027997798221833558,8.956563713770372e-06,5.87,4.53,0.5231497883796692,0.016254691407084465,-4.390244007110596,-0.11083984375,-0.2265625,0.13077482423679782,0.01743214067042584,0.1084432864878837,0.010364042292827842,0.4749042166029711,0.47573814850141094
1624633980.550862,0.0027997798221833558,8.956563713770372e-06,5.87,4.53,0.5231497883796692,0.016254691407084465,-4.390244007110596,-0.11083984375,-0.2265625,0.13077482423679782,0.01743214067042584,0.11194003246146451,0.012842552931879615,0.4749042166029711,0.476321300875096
1624633980.550862,0.0027997798221833558,8.956563713770372e-06,5.87,4.53,0.5231497883796692,0.016254691407084465,-4.390244007110596,-0.11083984375,-0.2265625,0.13077482423679782,0.01743214067042584,0.11194003246146451,0.012842552931879615,0.4749042166029711,0.476321300875096
1624633980.610862,0.00551158659258138,1.0382432625727421e-05,5.87,4.53,0.5404677987098694,0.03271238133311272,-4.390244007110596,-0.11083984375,-0.2265625,0.14461355242716528,0.017210682265113273,0.11194003246146451,0.012842552931879615,0.47580718239697345,0.476321300875096
1624633980.610862,0.00551158659258138,1.0382432625727421e-05,5.87,4.53,0.5404677987098694,0.03271238133311272,-4.390244007110596,-0.11083984375,-0.2265625,0.14461355242716528,0.017210682265113273,0.11194003246146451,0.012842552931879615,0.47580718239697345,0.476321300875096
1624633980.610862,0.00551158659258138,1.0382432625727421e-05,5.87,4.53,0.5404677987098694,0.03271238133311272,-4.390244007110596,-0.11083984375,-0.2265625,0.14461355242716528,0.017210682265113273,0.11194003246146451,0.012842552931879615,0.47580718239697345,0.476321300875096
1624633980.610862,0.00551158659258138,1.0382432625727421e-05,5.87,4.53,0.5404677987098694,0.03271238133311272,1.8902438879013062,0.0771484375,0.09716796875,0.14461355242716528,0.017210682265113273,0.11194003246146451,0.012842552931879615,0.47580718239697345,0.476321300875096
1624633980.610862,0.00551158659258138,1.0382432625727421e-05,5.87,4.53,0.5404677987098694,0.03271238133311272,1.8902438879013062,0.0771484375,0.09716796875,0.14461355242716528,0.017210682265113273,0.11727192257718837,0.01465307043769236,0.47580718239697345,0.4770430692705547
1624633980.670862,0.0091358663832761,1.294461680862888e-05,5.86,4.49,0.5404677987098694,0.03271238133311272,1.8902438879013062,0.0771484375,0.09716796875,0.1601883353792456,0.016174546474907354,0.11727192257718837,0.01465307043769236,0.47671469774241226,0.4770430692705547
1624633980.670862,0.0091358663832761,1.294461680862888e-05,5.86,4.49,0.5310446619987488,0.017374981194734573,1.8902438879013062,0.0771484375,0.09716796875,0.1601883353792456,0.016174546474907354,0.11727192257718837,0.01465307043769236,0.47671469774241226,0.4770430692705547
1624633980.670862,0.0091358663832761,1.294461680862888e-05,5.86,4.49,0.5310446619987488,0.017374981194734573,1.8902438879013062,0.0771484375,0.09716796875,0.1601883353792456,0.016174546474907354,0.11727192257718837,0.01465307043769236,0.47671469774241226,0.4770430692705547
1624633980.670862,0.0091358663832761,1.294461680862888e-05,5.86,4.49,0.5310446619987488,0.017374981194734573,1.8902438879013062,0.0771484375,0.09716796875,0.1601883353792456,0.016174546474907354,0.11727192257718837,0.01465307043769236,0.47671469774241226,0.4770430692705547
1624633980.670862,0.0091358663832761,1.294461680862888e-05,5.86,4.49,0.5310446619987488,0.017374981194734573,1.8902438879013062,0.0771484375,0.09716796875,0.1601883353792456,0.016174546474907354,0.12451122349302461,0.015151354180921466,0.47671469774241226,0.47780268759619526
1624633980.730862,0.01350214333454599,1.583043431670461e-05,5.86,4.49,0.5310446619987488,0.017374981194734573,1.8902438879013062,0.0771484375,0.09716796875,0.1756440285367844,0.010256896139334157,0.12451122349302461,0.015151354180921466,0.47709610435611377,0.47780268759619526
1624633980.730862,0.01350214333454599,1.583043431670461e-05,5.86,4.49,0.5310446619987488,0.017374981194734573,-0.3658536672592163,0.06103515625,0.13916015625,0.1756440285367844,0.010256896139334157,0.12451122349302461,0.015151354180921466,0.47709610435611377,0.47780268759619526
1624633980.730862,0.01350214333454599,1.583043431670461e-05,5.86,4.49,0.47472083568573,-0.031666550785303116,-0.3658536672592163,0.06103515625,0.13916015625,0.1756440285367844,0.010256896139334157,0.12451122349302461,0.015151354180921466,0.47709610435611377,0.47780268759619526
1624633980.730862,0.01350214333454599,1.583043431670461e-05,5.86,4.49,0.47472083568573,-0.031666550785303116,-0.3658536672592163,0.06103515625,0.13916015625,0.1756440285367844,0.010256896139334157,0.13339398635570857,0.013054527623907734,0.47709610435611377,0.47837144060534037
1624633980.730862,0.01350214333454599,1.583043431670461e-05,5.86,4.48,0.47472083568573,-0.031666550785303116,-0.3658536672592163,0.06103515625,0.13916015625,0.1756440285367844,0.010256896139334157,0.13339398635570857,0.013054527623907734,0.47709610435611377,0.47837144060534037
1624633980.776862,0.016205096161131926,1.8027776422820692e-05,5.86,4.48,0.47472083568573,-0.031666550785303116,-0.3658536672592163,0.06103515625,0.13916015625,0.16756440228026448,0.008205629855316018,0.13339398635570857,0.013054527623907734,0.4774462086714698,0.47837144060534037
1624633980.776862,0.016205096161131926,1.8027776422820692e-05,5.86,4.48,0.47472083568573,-0.031666550785303116,-0.3658536672592163,0.06103515625,0.13916015625,0.16756440228026448,0.008205629855316018,0.13339398635570857,0.013054527623907734,0.4774462086714698,0.47837144060534037
1624633980.776862,0.016205096161131926,1.8027776422820692e-05,5.86,4.48,0.47472083568573,-0.031666550785303116,-0.3658536672592163,0.06103515625,0.13916015625,0.16756440228026448,0.008205629855316018,0.13339398635570857,0.013054527623907734,0.4774462086714698,0.47837144060534037
1624633980.776862,0.016205096161131926,1.8027776422820692e-05,5.86,4.48,0.39208030700683594,-7.547093264292926e-05,-0.3658536672592163,0.06103515625,0.13916015625,0.16756440228026448,0.008205629855316018,0.13917571618514185,0.01078144175197536,0.4774462086714698,0.47871394193215056
1624633980.776862,0.016205096161131926,1.8027776422820692e-05,5.86,4.48,0.39208030700683594,-7.547093264292926e-05,-0.3658536672592163,0.06103515625,0.13916015625,0.16756440228026448,0.008205629855316018,0.13917571618514185,0.01078144175197536,0.4774462086714698,0.47871394193215056
1624633980.790862,0.019935312254174452,1.9677281158942677e-05,5.86,4.48,0.39208030700683594,-7.547093264292926e-05,-0.3658536672592163,0.06103515625,0.13916015625,0.18836099311707294,0.008058766108522995,0.13917571618514185,0.01078144175197536,0.47670019651797163,0.47871394193215056
1624633980.790862,0.019935312254174452,1.9677281158942677e-05,5.86,4.48,0.39208030700683594,-7.547093264292926e-05,-0.3658536672592163,0.06103515625,0.13916015625,0.18836099311707294,0.008058766108522995,0.13917571618514185,0.01078144175197536,0.47670019651797163,0.47871394193215056
1624633980.790862,0.019935312254174452,1.9677281158942677e-05,5.86,4.48,0.39208030700683594,-7.547093264292926e-05,-1.2195122241973877,-0.078125,0.36474609375,0.18836099311707294,0.008058766108522995,0.13917571618514185,0.01078144175197536,0.47670019651797163,0.47871394193215056
1624633980.790862,0.019935312254174452,1.9677281158942677e-05,5.86,4.48,0.29439273476600647,-0.03372612223029137,-1.2195122241973877,-0.078125,0.36474609375,0.18836099311707294,0.008058766108522995,0.14651848501410067,0.009813458675356938,0.47670019651797163,0.47853386547816085
1624633980.790862,0.019935312254174452,1.9677281158942677e-05,5.86,4.48,0.29439273476600647,-0.03372612223029137,-1.2195122241973877,-0.078125,0.36474609375,0.18836099311707294,0.008058766108522995,0.14651848501410067,0.009813458675356938,0.47670019651797163,0.47853386547816085
1624633980.850862,0.023777692020073876,2.08655969769498e-05,5.86,4.47,0.29439273476600647,-0.03372612223029137,-1.2195122241973877,-0.078125,0.36474609375,0.19585834532454502,0.007553919896290269,0.14651848501410067,0.009813458675356938,0.4767076348243313,0.47853386547816085
1624633980.850862,0.023777692020073876,2.08655969769498e-05,5.86,4.47,0.29439273476600647,-0.03372612223029137,-1.2195122241973877,-0.078125,0.36474609375,0.19585834532454502,0.007553919896290269,0.14651848501410067,0.009813458675356938,0.4767076348243313,0.47853386547816085
1624633980.850862,0.023777692020073876,2.08655969769498e-05,5.86,4.47,0.29439273476600647,-0.03372612223029137,-1.2195122241973877,-0.078125,0.36474609375,0.19585834532454502,0.007553919896290269,0.14651848501410067,0.009813458675356938,0.4767076348243313,0.47853386547816085
1624633980.850862,0.023777692020073876,2.08655969769498e-05,5.86,4.47,0.29439273476600647,-0.03372612223029137,-1.2195122241973877,-0.078125,0.36474609375,0.19585834532454502,0.007553919896290269,0.1550326534820432,0.008983727528382921,0.4767076348243313,0.47875344925023305
1624633980.850862,0.023777692020073876,2.08655969769498e-05,5.86,4.47,0.29439273476600647,-0.03372612223029137,-1.2195122241973877,-0.078125,0.36474609375,0.19585834532454502,0.007553919896290269,0.1550326534820432,0.008983727528382921,0.4767076348243313,0.47875344925023305
1624633980.910862,0.02716995274926245,2.1399889077724365e-05,5.86,4.47,0.176218181848526,-1.245015755557688e-05,-1.2195122241973877,-0.078125,0.36474609375,0.19757611631266717,0.0007584648772172249,0.1550326534820432,0.008983727528382921,0.47570737147761755,0.47875344925023305
1624633980.910862,0.02716995274926245,2.1399889077724365e-05,5.86,4.47,0.176218181848526,-1.245015755557688e-05,-1.2195122241973877,-0.078125,0.36474609375,0.19757611631266717,0.0007584648772172249,0.1550326534820432,0.008983727528382921,0.47570737147761755,0.47875344925023305
1624633980.910862,0.02716995274926245,2.1399889077724365e-05,5.86,4.47,0.176218181848526,-1.245015755557688e-05,0.6097561120986938,0.04638671875,0.158203125,0.19757611631266717,0.0007584648772172249,0.1550326534820432,0.008983727528382921,0.47570737147761755,0.47875344925023305
1624633980.910862,0.02716995274926245,2.1399889077724365e-05,5.86,4.47,0.176218181848526,-1.245015755557688e-05,0.6097561120986938,0.04638671875,0.158203125,0.19757611631266717,0.0007584648772172249,0.16291949916716814,0.00550029783090217,0.47570737147761755,0.478588639297178
1624633980.910862,0.02716995274926245,2.1399889077724365e-05,5.85,4.45,0.176218181848526,-1.245015755557688e-05,0.6097561120986938,0.04638671875,0.158203125,0.19757611631266717,0.0007584648772172249,0.16291949916716814,0.00550029783090217,0.47570737147761755,0.478588639297178
1624633980.970862,0.029522099525204158,2.176063923731444e-05,5.85,4.45,0.09631580859422684,-0.015269815921783447,0.6097561120986938,0.04638671875,0.158203125,0.19240671250199298,0.0006803114327603828,0.16291949916716814,0.00550029783090217,0.4751594707331077,0.478588639297178
1624633980.970862,0.029522099525204158,2.176063923731444e-05,5.85,4.45,0.09631580859422684,-0.015269815921783447,0.6097561120986938,0.04638671875,0.158203125,0.19240671250199298,0.0006803114327603828,0.16291949916716814,0.00550029783090217,0.4751594707331077,0.478588639297178
1624633980.970862,0.029522099525204158,2.176063923731444e-05,5.85,4.45,0.09631580859422684,-0.015269815921783447,0.6097561120986938,0.04638671875,0.158203125,0.19240671250199298,0.0006803114327603828,0.16291949916716814,0.00550029783090217,0.4751594707331077,0.478588639297178
1624633980.970862,0.029522099525204158,2.176063923731444e-05,5.85,4.45,0.09631580859422684,-0.015269815921783447,0.6097561120986938,0.04638671875,0.158203125,0.19240671250199298,0.0006803114327603828,0.16903264143300614,0.003662576548103766,0.4751594707331077,0.4782393306908298
1624633980.970862,0.029522099525204158,2.176063923731444e-05,5.85,4.45,0.09631580859422684,-0.015269815921783447,0.6097561120986938,0.04638671875,0.158203125,0.19240671250199298,0.0006803114327603828,0.16903264143300614,0.003662576548103766,0.4751594707331077,0.4782393306908298
1624633981.030862,0.03043678084812419,2.2427493543275588e-05,5.85,4.45,0.09631580859422684,-0.015269815921783447,0.6097561120986938,0.04638671875,0.158203125,0.1814610441569066,0.0016067332441813424,0.16903264143300614,0.003662576548103766,0.47478567672471517,0.4782393306908298
1624633981.030862,0.03043678084812419,2.2427493543275588e-05,5.85,4.45,0.09631580859422684,-0.015269815921783447,0.6097561120986938,0.04638671875,0.158203125,0.1814610441569066,0.0016067332441813424,0.16903264143300614,0.003662576548103766,0.47478567672471517,0.4782393306908298
1624633981.030862,0.03043678084812419,2.2427493543275588e-05,5.85,4.45,0.01544408779591322,0.0327754020690918,0.24390244483947754,-0.013671875,0.15234375,0.1814610441569066,0.0016067332441813424,0.17254947353320166,0.0026892402875190835,0.47478567672471517,0.47780612762326335
1624633981.030862,0.03043678084812419,2.2427493543275588e-05,5.85,4.45,0.01544408779591322,0.0327754020690918,0.24390244483947754,-0.013671875,0.15234375,0.1814610441569066,0.0016067332441813424,0.17254947353320166,0.0026892402875190835,0.47478567672471517,0.47780612762326335
1624633981.030862,0.03043678084812419,2.2427493543275588e-05,5.85,4.43,0.01544408779591322,0.0327754020690918,0.24390244483947754,-0.013671875,0.15234375,0.1814610441569066,0.0016067332441813424,0.17254947353320166,0.0026892402875190835,0.47478567672471517,0.47780612762326335
1624633981.030862,0.03109400316427505,2.2903590383747075e-05,5.85,4.43,0.01544408779591322,0.0327754020690918,0.24390244483947754,-0.013671875,0.15234375,0.1814610441569066,0.0016067332441813424,0.17254947353320166,0.0026892402875190835,0.47478567672471517,0.47780612762326335
1624633981.030862,0.03109400316427505,2.2903590383747075e-05,5.85,4.43,0.01544408779591322,0.0327754020690918,0.24390244483947754,-0.013671875,0.15234375,0.1814610441569066,0.0016067332441813424,0.17254947353320166,0.0026892402875190835,0.47478567672471517,0.47780612762326335
1624633981.030862,0.03109400316427505,2.2903590383747075e-05,5.85,4.43,0.01544408779591322,0.0327754020690918,0.24390244483947754,-0.013671875,0.15234375,0.1814610441569066,0.0016067332441813424,0.17380366123422603,0.0023086415662450753,0.47478567672471517,0.47736512988030744
1624633981.030862,0.03109400316427505,2.2903590383747075e-05,5.85,4.43,1.0889322510365673e-07,1.0129601832886692e-06,0.24390244483947754,-0.013671875,0.15234375,0.1814610441569066,0.0016067332441813424,0.17380366123422603,0.0023086415662450753,0.47478567672471517,0.47736512988030744
1624633981.030862,0.03109400316427505,2.2903590383747075e-05,5.85,4.43,1.0889322510365673e-07,1.0129601832886692e-06,0.24390244483947754,-0.013671875,0.15234375,0.1814610441569066,0.0016067332441813424,0.17380366123422603,0.0023086415662450753,0.47478567672471517,0.47736512988030744
1624633981.090862,0.030315144834078576,2.369725884718984e-05,5.85,4.43,1.0889322510365673e-07,1.0129601832886692e-06,0.24390244483947754,-0.013671875,0.15234375,0.16568374229034993,0.0030582793241612557,0.17380366123422603,0.0023086415662450753,0.47499815154394864,0.47736512988030744
1624633981.090862,0.030315144834078576,2.369725884718984e-05,5.85,4.43,1.0889322510365673e-07,1.0129601832886692e-06,0.24390244483947754,-0.013671875,0.15234375,0.16568374229034993,0.0030582793241612557,0.17380366123422603,0.0023086415662450753,0.47499815154394864,0.47736512988030744
1624633981.090862,0.030315144834078576,2.369725884718984e-05,5.85,4.43,1.0889322510365673e-07,1.0129601832886692e-06,0.8536585569381714,-0.01513671875,-0.00537109375,0.16568374229034993,0.0030582793241612557,0.1741868303059777,0.002555922327486741,0.47499815154394864,0.477131335950919
1624633981.090862,0.030315144834078576,2.369725884718984e-05,5.85,4.43,1.0889322510365673e-07,1.0129601832886692e-06,0.8536585569381714,-0.01513671875,-0.00537109375,0.16568374229034993,0.0030582793241612557,0.1741868303059777,0.002555922327486741,0.47499815154394864,0.477131335950919
1624633981.090862,0.030315144834078576,2.369725884718984e-05,5.84,4.41,1.0889322510365673e-07,1.0129601832886692e-06,0.8536585569381714,-0.01513671875,-0.00537109375,0.16568374229034993,0.0030582793241612557,0.1741868303059777,0.002555922327486741,0.47499815154394864,0.477131335950919
1624633981.150862,0.028009080791097325,2.4772076758579388e-05,5.84,4.41,1.0889322510365673e-07,1.0129601832886692e-06,0.8536585569381714,-0.01513671875,-0.00537109375,0.14759061515220456,0.002870189241988467,0.1741868303059777,0.002555922327486741,0.4750780755639528,0.477131335950919
1624633981.150862,0.028009080791097325,2.4772076758579388e-05,5.84,4.41,1.0889322510365673e-07,1.0129601832886692e-06,0.8536585569381714,-0.01513671875,-0.00537109375,0.14759061515220456,0.002870189241988467,0.1741868303059777,0.002555922327486741,0.4750780755639528,0.477131335950919
1624633981.150862,0.028009080791097325,2.4772076758579388e-05,5.84,4.41,1.0889322510365673e-07,1.0129601832886692e-06,0.8536585569381714,-0.01513671875,-0.00537109375,0.14759061515220456,0.002870189241988467,0.171619069035342,0.002603779923073357,0.4750780755639528,0.4769273465005071
1624633981.150862,0.028009080791097325,2.4772076758579388e-05,5.84,4.41,1.0889322510365673e-07,1.0129601832886692e-06,0.8536585569381714,-0.01513671875,-0.00537109375,0.14759061515220456,0.002870189241988467,0.171619069035342,0.002603779923073357,0.4750780755639528,0.4769273465005071
1624633981.150862,0.028009080791097325,2.4772076758579388e-05,5.84,4.41,1.0889322510365673e-07,1.0129601832886692e-06,0.8536585569381714,-0.01513671875,-0.00537109375,0.14759061515220456,0.002870189241988467,0.171619069035342,0.002603779923073357,0.4750780755639528,0.4769273465005071
1624633981.210862,0.024386380328615474,2.606939559159472e-05,5.84,4.41,1.063005257151417e-07,9.88842089100217e-07,0.8536585569381714,-0.005859375,-0.01513671875,0.12990742817043213,0.002724287975821435,0.171619069035342,0.002603779923073357,0.4751104159115234,0.4769273465005071
1624633981.210862,0.024386380328615474,2.606939559159472e-05,5.84,4.41,1.063005257151417e-07,9.88842089100217e-07,0.8536585569381714,-0.005859375,-0.01513671875,0.12990742817043213,0.002724287975821435,0.1664045946209374,0.0025942277996024578,0.4751104159115234,0.47674913893635934
1624633981.210862,0.024386380328615474,2.606939559159472e-05,5.84,4.41,1.063005257151417e-07,9.88842089100217e-07,0.8536585569381714,-0.005859375,-0.01513671875,0.12990742817043213,0.002724287975821435,0.1664045946209374,0.0025942277996024578,0.4751104159115234,0.47674913893635934
1624633981.210862,0.024386380328615474,2.606939559159472e-05,5.84,4.41,1.063005257151417e-07,9.88842089100217e-07,0.8536585569381714,-0.005859375,-0.01513671875,0.12990742817043213,0.002724287975821435,0.1664045946209374,0.0025942277996024578,0.4751104159115234,0.47674913893635934
1624633981.210862,0.024386380328615474,2.606939559159472e-05,5.84,4.4,1.063005257151417e-07,9.88842089100217e-07,0.8536585569381714,-0.005859375,-0.01513671875,0.12990742817043213,0.002724287975821435,0.1664045946209374,0.0025942277996024578,0.4751104159115234,0.47674913893635934
1624633981.276862,0.019643843643486356,2.7509576669938947e-05,5.84,4.4,1.1161556301431119e-07,1.0382842674516723e-06,0.8536585569381714,-0.005859375,-0.01513671875,0.11281432813917652,0.0019846331580839305,0.1664045946209374,0.0025942277996024578,0.4751144145645647,0.47674913893635934
1624633981.276862,0.019643843643486356,2.7509576669938947e-05,5.84,4.4,1.1161556301431119e-07,1.0382842674516723e-06,0.8536585569381714,-0.005859375,-0.01513671875,0.11281432813917652,0.0019846331580839305,0.15897052266316505,0.0022486062316734268,0.4751144145645647,0.4766155732301465
1624633981.276862,0.019643843643486356,2.7509576669938947e-05,5.84,4.4,1.1161556301431119e-07,1.0382842674516723e-06,0.8536585569381714,-0.005859375,-0.01513671875,0.11281432813917652,0.0019846331580839305,0.15897052266316505,0.0022486062316734268,0.4751144145645647,0.4766155732301465
1624633981.276862,0.019643843643486356,2.7509576669938947e-05,5.84,4.4,1.1161556301431119e-07,1.0382842674516723e-06,0.8536585569381714,-0.005859375,-0.01513671875,0.11281432813917652,0.0019846331580839305,0.15897052266316505,0.0022486062316734268,0.4751144145645647,0.4766155732301465
1624633981.276862,0.019643843643486356,2.7509576669938947e-05,5.84,4.4,1.1161556301431119e-07,1.0382842674516723e-06,0.8536585569381714,-0.005859375,-0.01513671875,0.11281432813917652,0.0019846331580839305,0.15897052266316505,0.0022486062316734268,0.4751144145645647,0.4766155732301465
1624633981.330862,0.01437889965522674,2.9004933827032244e-05,5.84,4.4,1.1161556301431119e-07,1.0382842674516723e-06,0.8536585569381714,-0.005859375,-0.01513671875,0.09882982122055925,0.001872380293234035,0.15897052266316505,0.0022486062316734268,0.47509784464334864,0.4766155732301465
1624633981.330862,0.01437889965522674,2.9004933827032244e-05,5.84,4.4,1.0889322510365673e-07,1.0129601832886692e-06,0.8536585569381714,-0.005859375,-0.01513671875,0.09882982122055925,0.001872380293234035,0.15897052266316505,0.0022486062316734268,0.47509784464334864,0.4766155732301465
1624633981.330862,0.01437889965522674,2.9004933827032244e-05,5.84,4.4,1.0889322510365673e-07,1.0129601832886692e-06,1.402438998222351,-0.0029296875,0.009765625,0.09882982122055925,0.001872380293234035,0.14998003639791482,0.0020555506483782354,0.47509784464334864,0.47644210499062545
1624633981.330862,0.01437889965522674,2.9004933827032244e-05,5.84,4.39,1.0889322510365673e-07,1.0129601832886692e-06,1.402438998222351,-0.0029296875,0.009765625,0.09882982122055925,0.001872380293234035,0.14998003639791482,0.0020555506483782354,0.47509784464334864,0.47644210499062545
1624633981.330862,0.01437889965522674,2.9004933827032244e-05,5.84,4.39,1.0889322510365673e-07,1.0129601832886692e-06,1.402438998222351,-0.0029296875,0.009765625,0.09882982122055925,0.001872380293234035,0.14998003639791482,0.0020555506483782354,0.47509784464334864,0.47644210499062545
1624633981.330862,0.010599352901309598,3.007883529861577e-05,5.84,4.39,1.0889322510365673e-07,1.0129601832886692e-06,1.402438998222351,-0.0029296875,0.009765625,0.09882982122055925,0.001872380293234035,0.14998003639791482,0.0020555506483782354,0.47509784464334864,0.47644210499062545
1624633981.330862,0.010599352901309598,3.007883529861577e-05,5.84,4.39,1.0889322510365673e-07,1.0129601832886692e-06,1.402438998222351,-0.0029296875,0.009765625,0.09882982122055925,0.001872380293234035,0.14998003639791482,0.0020555506483782354,0.47509784464334864,0.47644210499062545
1624633981.330862,0.010599352901309598,3.007883529861577e-05,5.84,4.39,1.0889322510365673e-07,1.0129601832886692e-06,1.402438998222351,-0.0029296875,0.009765625,0.09882982122055925,0.001872380293234035,0.14998003639791482,0.0020555506483782354,0.47509784464334864,0.47644210499062545
1624633981.330862,0.010599352901309598,3.007883529861577e-05,5.84,4.39,1.0889322510365673e-07,1.0129601832886692e-06,1.402438998222351,-0.0029296875,0.009765625,0.09882982122055925,0.001872380293234035,0.14998003639791482,0.0020555506483782354,0.47509784464334864,0.47644210499062545
1624633981.330862,0.010599352901309598,3.007883529861577e-05,5.84,4.39,1.0889322510365673e-07,1.0129601832886692e-06,1.402438998222351,-0.0029296875,0.009765625,0.08590257058542987,0.0019134691238339864,0.14276453815566795,0.0019801271472648934,0.4750979829386245,0.4762397837699367
1624633981.390862,0.006108474861961838,3.127041446008052e-05,5.84,4.39,1.0889322510365673e-07,1.0129601832886692e-06,1.402438998222351,-0.0029296875,0.009765625,0.08590257058542987,0.0019134691238339864,0.14276453815566795,0.0019801271472648934,0.4750979829386245,0.4762397837699367
1624633981.390862,0.006108474861961838,3.127041446008052e-05,5.84,4.39,1.0889322510365673e-07,1.0129601832886692e-06,1.2804877758026123,-0.01318359375,0.00927734375,0.08590257058542987,0.0019134691238339864,0.14276453815566795,0.0019801271472648934,0.4750979829386245,0.4762397837699367
1624633981.390862,0.006108474861961838,3.127041446008052e-05,5.84,4.39,1.0889322510365673e-07,1.0129601832886692e-06,1.2804877758026123,-0.01318359375,0.00927734375,0.08590257058542987,0.0019134691238339864,0.14276453815566795,0.0019801271472648934,0.4750979829386245,0.4762397837699367
1624633981.390862,0.006108474861961838,3.127041446008052e-05,5.84,4.39,1.1161556301431119e-07,1.0382842674516723e-06,1.2804877758026123,-0.01318359375,0.00927734375,0.08590257058542987,0.0019134691238339864,0.14276453815566795,0.0019801271472648934,0.4750979829386245,0.4762397837699367
1624633981.390862,0.006108474861961838,3.127041446008052e-05,5.85,4.37,1.1161556301431119e-07,1.0382842674516723e-06,1.2804877758026123,-0.01318359375,0.00927734375,0.07455304520914303,0.055713975346752403,0.1348491516685246,0.0019258774374683865,0.4765099913059842,0.4761672008685853
1624633981.450862,0.0011807092790399446,3.273321323461357e-05,5.85,4.37,1.1161556301431119e-07,1.0382842674516723e-06,1.2804877758026123,-0.01318359375,0.00927734375,0.07455304520914303,0.055713975346752403,0.1348491516685246,0.0019258774374683865,0.4765099913059842,0.4761672008685853
1624633981.450862,0.0011807092790399446,3.273321323461357e-05,5.85,4.37,1.1161556301431119e-07,1.0382842674516723e-06,1.2804877758026123,-0.01318359375,0.00927734375,0.07455304520914303,0.055713975346752403,0.1348491516685246,0.0019258774374683865,0.4765099913059842,0.4761672008685853
1624633981.450862,0.0011807092790399446,3.273321323461357e-05,5.85,4.37,1.1161556301431119e-07,1.0382842674516723e-06,1.2804877758026123,-0.01318359375,0.00927734375,0.07455304520914303,0.055713975346752403,0.1348491516685246,0.0019258774374683865,0.4765099913059842,0.4761672008685853
1624633981.450862,0.0011807092790399446,3.273321323461357e-05,5.85,4.37,1.1161556301431119e-07,1.0382842674516723e-06,1.2804877758026123,-0.01318359375,0.00927734375,0.07455304520914303,0.055713975346752403,0.1348491516685246,0.0019258774374683865,0.4765099913059842,0.4761672008685853
1624633981.450862,0.0011807092790399446,3.273321323461357e-05,5.85,4.37,0.004144567530602217,0.18081627786159515,1.2804877758026123,-0.01318359375,0.00927734375,0.07455304520914303,0.055713975346752403,0.12583831091615796,0.021048513922186256,0.4765099913059842,0.4772282654430259
1624633981.5108619,-0.0039315745119701566,3.4788198321793774e-05,5.85,4.37,0.004144567530602217,0.18081627786159515,1.2804877758026123,-0.01318359375,0.00927734375,0.06471601818152692,0.07617857549321969,0.12583831091615796,0.021048513922186256,0.4770489180693229,0.4772282654430259
1624633981.5108619,-0.0039315745119701566,3.4788198321793774e-05,5.85,4.37,0.004144567530602217,0.18081627786159515,1.3414634466171265,-0.015625,0.00341796875,0.06471601818152692,0.07617857549321969,0.12583831091615796,0.021048513922186256,0.4770489180693229,0.4772282654430259
1624633981.5108619,-0.0039315745119701566,3.4788198321793774e-05,5.85,4.37,0.004144567530602217,0.18081627786159515,1.3414634466171265,-0.015625,0.00341796875,0.06471601818152692,0.07617857549321969,0.12583831091615796,0.021048513922186256,0.4770489180693229,0.4772282654430259
1624633981.5108619,-0.0039315745119701566,3.4788198321793774e-05,5.85,4.37,0.004144567530602217,0.18081627786159515,1.3414634466171265,-0.015625,0.00341796875,0.06471601818152692,0.07617857549321969,0.12583831091615796,0.021048513922186256,0.4770489180693229,0.4772282654430259
1624633981.5108619,-0.0039315745119701566,3.4788198321793774e-05,5.85,4.37,0.004144567530602217,0.18081627786159515,1.3414634466171265,-0.015625,0.00341796875,0.05603360767402786,0.12588814537316803,0.11617561799425719,0.04420757004199891,0.48143980238744605,0.47951773361260697
1624633981.570862,-0.009034807652739115,3.7435769603536264e-05,5.85,4.37,0.006133170332759619,0.37927737832069397,1.3414634466171265,-0.015625,0.00341796875,0.05603360767402786,0.12588814537316803,0.11617561799425719,0.04420757004199891,0.48143980238744605,0.47951773361260697
1624633981.570862,-0.009034807652739115,3.7435769603536264e-05,5.85,4.37,0.006133170332759619,0.37927737832069397,1.3414634466171265,-0.015625,0.00341796875,0.05603360767402786,0.12588814537316803,0.11617561799425719,0.04420757004199891,0.48143980238744605,0.47951773361260697
1624633981.570862,-0.009034807652739115,3.7435769603536264e-05,5.85,4.37,0.006133170332759619,0.37927737832069397,1.3414634466171265,-0.015625,0.00341796875,0.05603360767402786,0.12588814537316803,0.11617561799425719,0.04420757004199891,0.48143980238744605,0.47951773361260697
1624633981.570862,-0.009034807652739115,3.7435769603536264e-05,5.85,4.37,0.006133170332759619,0.37927737832069397,1.3414634466171265,-0.015625,0.00341796875,0.05603360767402786,0.12588814537316803,0.11617561799425719,0.04420757004199891,0.48143980238744605,0.47951773361260697
1624633981.570862,-0.009034807652739115,3.7435769603536264e-05,5.85,4.37,0.006133170332759619,0.37927737832069397,1.3414634466171265,-0.015625,0.00341796875,0.04825474066204573,0.167069777596622,0.10621212574365163,0.07333556666797292,0.4958023616259861,0.48370399445317014
