time,la_x,la_y,uwb_x,uwb_y,vel_linear_x,vel_angular_z,mpu_ang_vel_z,mpu_linear_acc_x,mpu_linear_acc_y,odom_linear_x,odom_angular_z,cmd_linear_x,cmd_linear_y,odom_yaw,cmd_angular_z,var_x,var_y,var_xvel,var_yvel,vel_linear_y,odom_linear_y
1626109838.297299,1.1482808685149691e-14,1.4078389089297075e-10,0.0,0.0,2.6517554374549945e-07,-2.4667492652952205e-06,1.3414634466171265,-0.00244140625,0.0185546875,-1.1420887333539167e-14,0.001527792374424343,,,-2.3622093348814843,,0.0028114547589808856,0.0028114547589808856,0.06329009383580507,0.06329009383580507,0.0,1.8401665666775645e-10
1626109838.357299,1.1423388872076242e-14,1.3609533943621197e-10,5.59,4.87,2.6844932676794997e-07,-2.4972030132630607e-06,1.3414634466171265,-0.0068359375,0.0029296875,-1.1138041356974776e-14,0.0016967192228522512,,,-2.3622027083725863,,0.0028113331349981143,0.0028113331349981143,0.06330548660102896,0.06330548660102896,0.0,1.7972605758882733e-10
1626109838.417299,1.065975040560586e-14,1.3151526160768167e-10,5.58,4.87,2.6198065938842774e-07,-2.437029479551711e-06,1.3414634466171265,-0.0068359375,0.0029296875,-1.0606462269409701e-14,0.001666766601748336,,,-2.362203236193592,,0.0028113390057681147,0.0028113390057681147,0.06329863619273723,0.06329863619273723,0.0,1.7541787996250878e-10
1626109838.483299,1.0082878304050642e-14,1.2704369729915648e-10,5.58,4.87,2.6517554374549945e-07,-2.4667492652952205e-06,1.402438998222351,-0.0029296875,0.005859375,-1.0054119003205322e-14,0.0016227510130822752,,,-2.3621956087264095,,0.0031511703541216973,0.0031511703541216973,0.06374216114840787,0.06374216114840787,0.0,1.7191296851275728e-10
1626109838.537299,9.8775015666684e-15,1.2268032953251165e-10,5.59,4.87,2.6517554374549945e-07,-2.4667492652952205e-06,1.402438998222351,-0.0029296875,0.005859375,-1.0003524829235732e-14,0.0015309838890823647,,,-2.362208914268779,,0.002811441944710771,0.002811441944710771,0.06331014259278255,0.06331014259278255,0.0,1.6690366415305898e-10
1626109838.597299,9.814399535156342e-15,1.1842449026628214e-10,5.59,4.87,2.6517554374549945e-07,-2.4667492652952205e-06,1.2804877758026123,-0.0009765625,0.0185546875,-9.929741505277449e-15,0.001433903401901405,,,-2.362213271915164,,0.0028113963516988327,0.0028113963516988327,0.06332150503657807,0.06332150503657807,0.0,1.626974880029727e-10
1626109838.691299,9.67173656579181e-15,1.1427531839950775e-10,5.59,4.87,2.6517554374549945e-07,-2.4667492652952205e-06,1.3414634466171265,-0.00244140625,0.015625,-9.421261363827576e-15,0.0016992109301691622,,,-2.3621473498181267,,0.004798556709910296,0.004798556709910296,0.06582939852371295,0.06582939852371295,0.0,1.6241413033504134e-10
1626109838.717299,9.314938479272133e-15,1.1023186310753179e-10,5.59,4.87,2.6517554374549945e-07,-2.4667492652952205e-06,1.3414634466171265,-0.00244140625,0.015625,-9.473540235286688e-15,0.001650724754496351,,,-2.3622052421480437,,0.0028114179443416024,0.0028114179443416024,0.06332151403253357,0.06332151403253357,0.0,1.543645208403377e-10
1626109838.795299,9.37564159719637e-15,1.0629384024553989e-10,5.59,4.87,2.6517554374549945e-07,-2.4667492652952205e-06,1.3414634466171265,-0.009765625,-0.0029296875,-9.290789744686161e-15,0.001742155024180146,,,-2.362171266767144,,0.003844800498431476,0.003844800498431476,0.06463761754009295,0.06463761754009295,0.0,1.5217861633596692e-10
1626109838.8372989,9.076031651758275e-15,1.0246009095951779e-10,5.59,4.87,2.6517554374549945e-07,-2.4667492652952205e-06,1.3414634466171265,-0.009765625,-0.0029296875,-9.494348995340115e-15,0.0016641821227984263,,,-2.3622038817680004,,0.0028115735756312483,0.0028115735756312483,0.06331208218337855,0.06331208218337855,0.0,1.4619416810034057e-10
1626109838.897299,9.37032670721045e-15,9.872954947728115e-11,5.59,4.87,2.6198065938842774e-07,-2.437029479551711e-06,1.3414634466171265,-0.01318359375,0.015625,-9.273564388710954e-15,0.001558435217181654,,,-2.3622078044469386,,0.0028115533621751853,0.0028115533621751853,0.0633165762792049,0.0633165762792049,0.0,1.4219393608156554e-10
1626109838.899299,9.247395935074053e-15,9.8729549475767e-11,5.59,4.86,2.6844932676794997e-07,-2.4972030132630607e-06,1.3414634466171265,-0.01318359375,0.015625,-9.336632701051503e-15,0.001830588587729126,,,-2.362195667050772,,0.002924271586913226,0.002924271586913226,0.06346154807717222,0.06346154807717222,0.0,1.4239138086411413e-10
1626109838.983299,8.852449010420593e-15,9.510078055069767e-11,5.59,4.86,2.6517554374549945e-07,-2.4667492652952205e-06,1.402438998222351,0.0009765625,0.013671875,-8.693507489553519e-15,0.0018837770882718014,,,-2.3621474445127917,,0.00431747489795457,0.00431747489795457,0.06522597340218735,0.06522597340218735,0.0,1.4072287426723915e-10
1626109839.017299,8.635237425266002e-15,9.15722685168815e-11,5.59,4.89,2.6517554374549945e-07,-2.4667492652952205e-06,1.402438998222351,0.0009765625,0.013671875,-8.56419731644783e-15,0.0018152180715262538,,,-2.3621970362113762,,0.0028115113555544783,0.0028115113555544783,0.06330916873908797,0.06330916873908797,0.0,1.3433677952113855e-10
1626109839.0872989,8.087028095068657e-15,8.814282599899298e-11,5.59,4.89,2.6517554374549945e-07,-2.4667492652952205e-06,1.2804877758026123,-0.005859375,0.005859375,-8.067481253994159e-15,0.0018662137268734634,,,-2.362177209924511,,0.0033803707504634663,0.0033803707504634663,0.06403997075537678,0.06403997075537678,0.0,1.3138280998979018e-10
1626109839.137299,8.019929657804992e-15,8.481098573857275e-11,5.57,4.88,2.6844932676794997e-07,-2.4972030132630607e-06,1.2804877758026123,-0.005859375,0.005859375,-7.803134393546668e-15,0.0017678761863622334,,,-2.362198366093224,,0.0028115358318367197,0.0028115358318367197,0.06330891818801473,0.06330891818801473,0.0,1.2671786915338892e-10
1626109839.197299,7.735512616196026e-15,8.157520907380118e-11,5.57,4.88,2.6517554374549945e-07,-2.4667492652952205e-06,1.2804877758026123,-0.001953125,0.0048828125,-7.529724411640553e-15,0.0016555267235577758,,,-2.3622028378320588,,0.0028114689425240585,0.0028114689425240585,0.06331721096992696,0.06331721096992696,0.0,1.2300818004072216e-10
1626109839.257299,7.538131687784169e-15,7.843381210830265e-11,5.58,4.89,2.6517554374549945e-07,-2.4667492652952205e-06,1.3414634466171265,-0.005859375,0.00439453125,-7.265245287169344e-15,0.0017455001441387475,,,-2.3621996306480937,,0.002811362796350204,0.002811362796350204,0.0633298499852565,0.0633298499852565,0.0,1.193652473376517e-10
1626109839.317299,6.9575865593404896e-15,7.538495233717561e-11,5.58,4.89,2.6198065938842774e-07,-2.437029479551711e-06,1.3414634466171265,-0.005859375,0.00439453125,-7.198578361334678e-15,0.001959557349497567,,,-2.3621917478300736,,0.002811404323425811,0.002811404323425811,0.06331754552046495,0.06331754552046495,0.0,1.1576206265424471e-10
1626109839.377299,7.167278657248147e-15,7.242753798073477e-11,5.58,4.89,2.6198065938842774e-07,-2.437029479551711e-06,1.2804877758026123,-0.0068359375,0.00244140625,-6.861782687495822e-15,0.0018357340569826552,,,-2.3621952016509242,,0.002811520054217414,0.002811520054217414,0.06332170759099315,0.06332170759099315,0.0,1.1224000513446319e-10
1626109839.437299,6.69721254233664e-15,6.955985841979447e-11,5.58,4.87,2.6844932676794997e-07,-2.4972030132630607e-06,1.2804877758026123,-0.0068359375,0.00244140625,-6.5665314797627e-15,0.0018011915101880291,,,-2.362195972630176,,0.0028115611066597346,0.0028115611066597346,0.06330682352225403,0.06330682352225403,0.0,1.0876776985216558e-10
1626109839.497299,6.0851722587942796e-15,6.678052242176907e-11,5.58,4.87,2.6517554374549945e-07,-2.4667492652952205e-06,1.402438998222351,-0.00830078125,0.01220703125,-6.737245413455751e-15,0.0017837940079544392,,,-2.3621971697561945,,0.002811602755579408,0.002811602755579408,0.06329088574919481,0.06329088574919481,0.0,1.0536331741445168e-10
1626109839.5872989,6.9345071111799116e-15,6.408768278039895e-11,5.58,4.89,2.6517554374549945e-07,-2.4667492652952205e-06,1.2804877758026123,0.005859375,0.00341796875,-6.74448253997346e-15,0.0016952843824938925,,,-2.3621493573090753,,0.004557224002080221,0.004557224002080221,0.06549318778196601,0.06549318778196601,0.0,1.0396762609529283e-10
1626109839.617299,6.643258396545369e-15,6.147949262196056e-11,5.57,4.91,2.6517554374549945e-07,-2.4667492652952205e-06,1.2804877758026123,0.005859375,0.00341796875,-6.825241256824057e-15,0.0016400096398380892,,,-2.3622033634278585,,0.002811526426133311,0.002811526426133311,0.0632809737788437,0.0632809737788437,0.0,9.87799245692757e-11
1626109839.677299,6.789509302889087e-15,5.895421898032084e-11,5.57,4.91,2.6517554374549945e-07,-2.4667492652952205e-06,1.402438998222351,-0.0009765625,0.00244140625,-6.52221627404461e-15,0.001536235234514398,,,-2.3622081530262844,,0.0028115344656851502,0.0028115344656851502,0.06328701994050326,0.06328701994050326,0.0,9.56005184071552e-11
1626109839.737299,6.430329627463155e-15,5.6509985436532534e-11,5.58,4.89,2.6844932676794997e-07,-2.4972030132630607e-06,1.402438998222351,-0.0009765625,0.00244140625,-6.26461962748479e-15,0.0016019258867494648,,,-2.3622059563084266,,0.0028115154735823666,0.0028115154735823666,0.06328157660604279,0.06328157660604279,0.0,9.248152941818242e-11
1626109839.797299,6.230541127780068e-15,5.4144988596888706e-11,5.58,4.89,2.6517554374549945e-07,-2.4667492652952205e-06,1.3414634466171265,-0.0068359375,-0.00048828125,-5.989405209018597e-15,0.001500044756916719,,,-2.3622102465936754,,0.0028114596292656184,0.0028114596292656184,0.06329140002119635,0.06329140002119635,0.0,8.944286769898093e-11
1626109839.857299,5.915309709015765e-15,5.185741659753465e-11,5.59,4.89,2.6844932676794997e-07,-2.4972030132630607e-06,1.3414634466171265,-0.01416015625,0.0078125,-6.093130288781372e-15,0.0017329543613517583,,,-2.3622012530542995,,0.002811336055190978,0.002811336055190978,0.0633067066716052,0.0633067066716052,0.0,8.647682093476713e-11
1626109839.917299,5.797851245722691e-15,4.9645501445467e-11,5.62,4.88,2.6517554374549945e-07,-2.4667492652952205e-06,1.3414634466171265,-0.0126953125,0.0048828125,-5.916967716454976e-15,0.0017430720743510403,,,-2.362200214299534,,0.002811341639173807,0.002811341639173807,0.0632997574974728,0.0632997574974728,0.0,8.356409915049242e-11
1626109839.983299,5.655062585023796e-15,4.7507572163767286e-11,5.62,4.88,2.6517554374549945e-07,-2.4667492652952205e-06,1.3414634466171265,-0.0126953125,0.0048828125,-5.676757609735661e-15,0.0018686406143794436,,,-2.362185760976061,,0.003151173520372843,0.003151173520372843,0.0637431842413403,0.0637431842413403,0.0,8.101488862287967e-11
1626109840.037299,5.625809192427696e-15,4.544192234694483e-11,5.64,4.88,2.6517554374549945e-07,-2.4667492652952205e-06,1.3414634466171265,-0.0126953125,0.0048828125,-5.514846847339322e-15,0.0017630526924311883,,,-2.362199116285253,,0.002811444316989966,0.002811444316989966,0.06331106085239709,0.06331106085239709,0.0,7.796110259047949e-11
1626109840.097299,5.425155463374275e-15,4.344688581112891e-11,5.64,4.88,2.6517554374549945e-07,-2.4667492652952205e-06,1.3414634466171265,-0.0009765625,0.01318359375,-5.434015028798881e-15,0.0016513060339126938,,,-2.3622032719072776,,0.002811398533287759,0.002811398533287759,0.06332232584955688,0.06332232584955688,0.0,7.526526243897742e-11
1626109840.191299,5.06398164045821e-15,4.152059219006005e-11,5.65,4.87,2.6844932676794997e-07,-2.4972030132630607e-06,1.3414634466171265,-0.0126953125,0.0068359375,-4.929657374737649e-15,0.0017556493023810546,,,-2.362141532032025,,0.0047985621227258695,0.0047985621227258695,0.06583013343943313,0.06583013343943313,0.0,7.404959870219482e-11
1626109840.217299,0.3999690118882942,-1.3617377400699019e-09,5.68,4.88,2.6517554374549945e-07,-2.4667492652952205e-06,1.3414634466171265,-0.0126953125,0.0068359375,0.010315547975536667,0.0017055216564493708,0.5,0.0,-2.3622020733691964,0.0,0.00281141970815252,0.00281141970815252,0.06332215374985914,0.06332215374985914,0.0,-3.766957138166367e-09
1626109840.295299,0.3736336740855819,1.292438615482325e-08,5.68,4.88,0.03104228898882866,-0.1792227178812027,1.2804877758026123,-0.013671875,0.0078125,0.03968336056142767,0.0018477607214297115,0.5,0.0,-2.362165128521504,0.0,0.0038448046998187445,0.003844804733802693,0.06463817442788576,0.06463817592363498,0.0,3.532066056978379e-08
1626109840.3372989,0.36772147222911317,4.811659107682254e-07,5.71,4.88,0.03104228898882866,-0.1792227178812027,1.2804877758026123,-0.013671875,0.0078125,0.053700408020447406,0.0016086139921348518,0.5,0.0,-2.365545533550585,0.0,0.0028115767327790506,0.0028115767762037632,0.06331256153503896,0.0633125738831072,0.0,1.3229473619957182e-06
1626109840.397299,0.3569917792875065,-5.640479013615618e-06,5.71,4.88,0.1005711555480957,-0.04981309175491333,-1.8292683362960815,-0.021484375,-0.14306640625,0.07499256873933226,0.0011826897121912767,0.5,0.0,-2.3709181899155496,0.0,0.002811558363056868,0.002811558512568804,0.0633169949748917,0.06331704312988642,0.0,-1.5221851161749085e-05
1626109840.399299,0.34000594504492143,-5.633106971829566e-06,5.76,4.89,0.19522565603256226,0.06591088324785233,-3.0487804412841797,0.1865234375,-0.18017578125,0.07567253144349916,-0.0025252923349854406,0.5,0.0,-2.3710373485342915,0.0,0.002924276718264393,0.0029242768852222006,0.06346196644981714,0.06346201467472544,0.0,-1.5214183647944258e-05
1626109840.483299,-0.09814292384223972,-1.7258305895927688e-05,5.76,4.89,0.31490659713745117,0.04966229572892189,-3.0487804412841797,0.1865234375,-0.18017578125,0.0955912050715447,0.0019553265149239913,0.5,0.0,-2.371961956565206,0.0,0.0043174970314982025,0.004317498549032291,0.06522637379438709,0.06522649784718311,0.0,-4.780535389499316e-05
1626109840.517648,-0.0926875567185586,-2.1254818857337616e-05,5.72,4.88,0.40905967354774475,0.04878981038928032,1.7073171138763428,-0.1103515625,0.9912109375,0.10022397676425285,0.0019417623335626025,0.5,0.0,-2.3705737831276767,0.0,0.0028158119056801542,0.0028158125443211966,0.06331439560877372,0.06331463044634782,0.0,-5.985495781008349e-05
1626109840.587648,-0.10810137116846343,-1.1823842310948756e-05,5.72,4.88,0.49575310945510864,0.016931792721152306,1.7073171138763428,-0.1103515625,0.9912109375,0.1070203587548635,0.012509695063255407,0.5,0.0,-2.368410108932146,0.0,0.0033813329194269156,0.003381333906726869,0.06404116135527257,0.06404154831164281,0.0,-3.598651120974723e-05
1626109840.637648,-0.09979335948708791,5.184105603278697e-06,5.72,4.87,0.533136785030365,-0.0005281999474391341,1.7073171138763428,-0.1103515625,0.9912109375,0.12134787573357611,0.011924952834039054,0.5,0.0,-2.3669274903712423,0.0,0.002811746181367646,0.0028117468664707696,0.06330938840896376,0.06330994334377812,0.0,9.986438673583578e-06
1626109840.697648,-0.11260295350808164,2.4663452771984135e-05,5.72,4.87,0.533136785030365,-0.0005281999474391341,2.0731706619262695,-0.150390625,-0.5732421875,0.1378456416396337,0.011243363356054484,0.5,0.0,-2.365693019861068,0.0,0.0028115251626415244,0.002811525881801715,0.06331757147162524,0.06331832767257826,0.0,6.414408105464711e-05
1626109840.795648,-0.1551466248443566,3.576379226837621e-05,5.73,4.85,0.512984573841095,0.016450954601168633,-2.0731706619262695,-0.0205078125,-0.1435546875,0.14925103656394342,0.011687056669753398,0.5,0.0,-2.3648486012005376,0.0,0.005042566217810029,0.005042569417887303,0.06612188013593584,0.0661229022353889,0.0,9.835781400155715e-05
1626109840.817648,-0.1399568001302943,4.1714261414112586e-05,5.74,4.82,0.49750420451164246,0.03322155401110649,1.402438998222351,0.09130859375,0.125,0.171297944481407,0.011438132344750471,0.5,0.0,-2.3644061862249575,0.0,0.0028114286712410423,0.00281142946936391,0.06331784026418258,0.06331910749180578,0.0,0.00011629245355393049
1626109840.879648,-0.18479330931017454,5.211283600239243e-05,5.74,4.82,0.4975075125694275,0.033252034336328506,1.402438998222351,0.09130859375,0.125,0.18442375087448942,0.020784549389561396,0.5,0.0,-2.3625788159832593,0.0,0.0029242734623214817,0.002924274537980803,0.0634669235570085,0.06346854919382405,0.0,0.00014805647740947914
1626109840.937648,-0.17617836710675144,6.004596407370977e-05,5.73,4.8,0.5000045299530029,-0.0008551257196813822,-2.378048896789551,0.265625,-0.14306640625,0.19615042398393762,0.019590686645833036,0.5,0.0,-2.361173435126248,0.0,0.002811478191982579,0.0028114791142446437,0.0633290023926591,0.06333105655495634,0.0,0.0001735239455135963
1626109840.997648,-0.17931666714119623,6.0154563906356405e-05,5.78,4.77,0.5000045299530029,-0.0008551257196813822,-2.378048896789551,0.265625,-0.14306640625,0.2057870733175648,0.015877724149416857,0.5,0.0,-2.3610253447525267,0.0,0.002811455905763317,0.002811456612484047,0.06332028017378132,0.06332279808008788,0.0,0.00017833121579911282
1626109841.087648,-0.21398852107381433,5.3184399046937934e-05,5.79,4.71,0.4900442361831665,-1.3968267921882216e-05,2.317073106765747,0.029296875,-0.1923828125,0.20756887202840166,0.007961130728242914,0.5,0.0,-2.361065938281917,0.0,0.004557306670750388,0.004557309073921086,0.06552307980241882,0.06552619505279024,0.0,0.00016515322568463642
1626109841.1176481,-0.20032823477556405,4.6447418900301095e-05,5.79,4.71,0.5078538656234741,-0.016347775235772133,2.5,0.5947265625,-0.1201171875,0.22108603612954528,0.007702760396932284,0.5,0.0,-2.3612754620273546,0.0,0.0028115754895000665,0.002811576291134532,0.06330882532023585,0.06331242784102185,0.0,0.0001486905161718324
1626109841.191648,-0.2273356264085279,3.970224697123262e-05,5.76,4.64,0.5040279626846313,-0.01577799767255783,2.5,0.5947265625,-0.1201171875,0.22415294201747274,0.005562113847502722,0.5,0.0,-2.361432484465828,0.0,0.0036116494933012035,0.003611651170503009,0.06433117506300984,0.06433543151264944,0.0,0.00013378296694275738
1626109841.237648,-0.2170842788363538,3.057844871133587e-05,5.76,4.64,0.49931851029396057,0.050098493695259094,-2.195122003555298,0.189453125,-0.1181640625,0.23309993024183392,0.005268087089110391,0.5,0.0,-2.3619896585357827,0.0,0.002811620436345417,0.002811621526747814,0.0633031002806457,0.06330794391394062,0.0,0.00011079353170342587
1626109841.297648,-0.22620077327869906,1.9035934831452106e-05,5.73,4.62,0.43906915187835693,-0.0005054862122051418,-2.195122003555298,0.189453125,-0.1181640625,0.23787746440805035,0.004931698684827031,0.5,0.0,-2.3620223321533924,0.0,0.002811569379369932,0.0028115706836233587,0.06330984990669047,0.06331535114390753,0.0,8.107907262649945e-05
1626109841.379648,-0.24056435500956366,1.4533666883093726e-05,5.72,4.58,0.3582335114479065,0.04908095300197601,-1.4634146690368652,0.107421875,0.427734375,0.23527197234799338,0.02384984635922697,0.5,0.0,-2.360801585901671,0.0,0.0040799932721317525,0.0040799962946083575,0.06492900832832751,0.06493525076793767,0.0,7.084112835914912e-05
1626109841.417648,-0.2304733795002707,1.003702505425008e-05,5.72,4.58,0.2508847713470459,-0.0003130687400698662,3.2926828861236572,-0.0390625,0.18603515625,0.239408853909878,0.02291960807396464,0.5,0.0,-2.360514888626864,0.0,0.0028115310296742994,0.0028115322894686277,0.06331079188179131,0.06331753149358996,0.0,5.9229986820892943e-05
1626109841.483648,-0.23291022866450356,6.069349064472817e-06,5.71,4.54,0.14505919814109802,-0.0005837458884343505,3.2926828861236572,-0.0390625,0.18603515625,0.2315127591210823,0.014593971622301574,0.5,0.0,-2.3605024669640287,0.0,0.003151332205649657,0.0031513336321414114,0.06375133443518952,0.06375869198847126,0.0,4.9068306567093195e-05
1626109841.537648,-0.2308455277770836,3.928507169514308e-06,5.71,4.54,0.060583677142858505,0.016348447650671005,0.3658536672592163,-0.0380859375,0.1806640625,0.2208267632538733,0.01377471162761514,0.5,0.0,-2.360432982951893,0.0,0.0028115474171064095,0.0028115485159458647,0.06331733218684113,0.06332519353957576,0.0,4.3679473490571315e-05
1626109841.597648,-0.2222311696773456,2.8018128685693896e-06,5.71,4.54,0.0017588954651728272,0.016361817717552185,0.3658536672592163,-0.0380859375,0.1806640625,0.20375907415321687,0.012914511518615978,0.5,0.0,-2.360207770355237,0.0,0.0028114791122741344,0.002811480098607665,0.06332718354094297,0.06333548068377226,0.0,4.092844584079058e-05
1626109841.691648,-0.18311195366089253,1.0048831005784329e-06,5.71,4.48,2.7280150334263453e-06,-2.537688305892516e-05,0.4268292784690857,-0.01171875,-0.00341796875,0.17688616223098186,0.003364731917082541,0.5,0.0,-2.360334898222278,0.0,0.004798749714689741,0.0047987521144186316,0.06583369630047321,0.0658424671584896,0.0,3.587339386839138e-05
1626109841.717648,-0.18068528450854568,7.027786498732018e-07,5.71,4.48,2.7280150334263453e-06,-2.537688305892516e-05,1.4634146690368652,-0.0078125,0.00048828125,0.16193021903004925,0.0032676804141544037,0.5,0.0,-2.3604701470161613,0.0,0.0028114731709610124,0.002811473841160049,0.06332503003624006,0.06333369927823908,0.0,3.512763302825685e-05
1626109841.795648,0.2661829573744456,6.633751385033054e-07,5.71,4.45,0.003907546866685152,0.0007919819909147918,1.4634146690368652,-0.0078125,0.00048828125,0.17206262970162503,0.0048522242746692305,0.5,0.0,-2.3603481795100154,0.0,0.003844889368925616,0.0038448905391724806,0.06464023564608637,0.06464894259891205,0.0,3.5222610648567034e-05
1626109841.837648,0.2582077666422413,5.857599738789673e-07,5.71,4.45,0.05522233992815018,-0.03292178362607956,1.4634146690368652,0.00146484375,0.0,0.1717902713995547,0.004635900577345233,0.5,0.0,-2.3604192960446113,0.0,0.002811622438136447,0.0028116231019845728,0.06331412449104379,0.0633226144968001,0.0,3.511121800492063e-05
1626109841.897648,0.25002030559421523,5.590505796892306e-07,5.72,4.43,0.12546102702617645,-0.00028455251595005393,1.4634146690368652,0.00146484375,0.0,0.17722427173699595,0.003443796060465918,0.5,0.0,-2.36045481104249,0.0,0.002811666462454846,0.002811667139451934,0.06329473653400734,0.0633030913292405,0.0,3.509920949810686e-05
1626109841.983648,0.252070887940947,4.115700315085091e-07,5.73,4.43,0.24090974032878876,0.016580883413553238,1.097561001777649,-0.1064453125,-0.30322265625,0.1914652389139707,0.003276407403346474,0.5,0.0,-2.360567805390159,0.0,0.004317812842619399,0.004317814815287783,0.06519941207851145,0.0652078172341916,0.0,3.4834283972735184e-05
1626109842.017648,0.24571239913240958,-5.046193409956083e-07,5.73,4.43,0.34521153569221497,0.000280886422842741,0.4878048896789551,0.1689453125,-0.3427734375,0.196816330050101,0.00316883425169163,0.5,0.0,-2.3603722059011827,0.0,0.002811606963717935,0.0028116077711694653,0.06328271462637791,0.06329093865967643,0.0,3.2356899687918736e-05
1626109842.077648,-0.19566874068139192,6.820835765397931e-07,5.75,4.41,0.4387759864330292,0.033530093729496,0.4878048896789551,0.1689453125,-0.3427734375,0.18812877409264173,0.0029963023361339472,0.5,0.0,-2.3598808054044706,0.0,0.002811599605571014,0.0028116005236325176,0.06328845056279984,0.06329671329604938,0.0,3.5504399831118705e-05
1626109842.137648,-0.18266282549319007,4.084368594416099e-06,5.75,4.41,0.5097090005874634,0.00030607011285610497,2.6219513416290283,0.26171875,-0.50830078125,0.18669276867485599,0.003294284506921097,0.0,0.0,-2.359279978021218,0.0,0.0028115492612576635,0.002811549978085029,0.06328713927819098,0.0632954257563683,0.0,4.4803911779735986e-05
1626109842.197648,-0.18086892386911252,6.379092528838831e-06,5.76,4.39,0.4978575110435486,-0.015902431681752205,2.6219513416290283,0.26171875,-0.50830078125,0.19132161639705886,0.0031002681710256383,0.0,0.0,-2.359035323503592,0.0,0.002811472875838563,0.0028114734524983228,0.06329817410125645,0.063306460956564,0.0,5.14001123227116e-05
1626109842.295648,-0.1989959708842223,4.941949550189359e-06,5.78,4.35,0.4081396758556366,-0.032691214233636856,0.9756097793579102,-0.07373046875,0.064453125,0.1914341028875935,-0.003465484462680822,0.0,0.0,-2.359604985821181,0.0,0.005042518447372901,0.005042520494576176,0.06610524184746043,0.06611368683425019,0.0,4.797586027830345e-05
1626109842.317648,-0.18495521288512964,4.789043816011819e-07,5.78,4.35,0.3000587224960327,-0.01657647266983986,-2.378048896789551,0.01708984375,0.43408203125,0.20487425141974586,-0.003420303951460074,0.0,0.0,-2.360399110262591,0.0,0.002811411658361197,0.0028114121981412743,0.06330347360478147,0.0633116875200234,0.0,3.598581356535957e-05
1626109842.379648,-0.20548231214262197,-5.367278757359212e-07,5.82,4.34,0.18212637305259705,0.01637696474790573,-2.378048896789551,0.01708984375,0.43408203125,0.20507137427731054,0.016636522620719654,0.0,0.0,-2.3601669267101353,0.0,0.0029242596034168636,0.0029242604655927364,0.06345473012812071,0.06346296018194625,0.0,3.3894283183733974e-05
1626109842.437648,-0.20269773602663654,-1.9101333333871413e-06,5.82,4.34,0.08590823411941528,0.03376065939664841,0.4878048896789551,0.01025390625,0.1416015625,0.19963041716020077,0.015646284053443617,0.0,0.0,-2.359843342777047,0.0,0.0028114656226654756,0.0028114664422081827,0.06331871756386397,0.06332698572702816,0.0,3.0140421662168424e-05
1626109842.497648,-0.1904822645788904,-3.232511008693096e-06,5.85,4.3,0.015875358134508133,3.204636959708296e-05,0.4878048896789551,0.01025390625,0.1416015625,0.18768625544059148,0.013132345779124309,0.0,0.0,-2.359203483789215,0.0,0.0028114403769247025,0.0028114410489025916,0.06331168544772182,0.06331996767223519,0.0,2.6382892629097037e-05
1626109842.587648,-0.17090151635829198,-3.3974116200934782e-06,5.86,4.3,8.989343882603862e-07,-8.362179869436659e-06,-0.5487805008888245,0.001953125,0.07275390625,0.15218307784783336,0.006978111472720265,0.0,0.0,-2.3593556423408897,0.0,0.0028115488027761104,0.0028115492614816384,0.06330301207236605,0.06331119388596042,0.0,2.6347536918885024e-05
1626109842.6176481,-0.16893566119432127,-3.0805925198991346e-06,5.86,4.3,8.989343882603862e-07,-8.362179869436659e-06,1.2195122241973877,-0.0009765625,-0.02099609375,0.13376629790384686,0.006537794503178209,0.0,0.0,-2.359342754918489,0.0,0.0028115899400485422,0.0028115903568417568,0.06330710063445578,0.06331511565472774,0.0,2.7477411707716108e-05
1626109842.677648,-0.15559665227396016,-2.6171154098703236e-06,5.87,4.29,8.881038411345799e-07,-8.261430593847763e-06,1.2195122241973877,-0.0009765625,-0.02099609375,0.11689536109406937,0.008454525462604485,0.0,0.0,-2.3592538469124857,0.0,0.002811578142160145,0.0028115784675902616,0.06329938541004787,0.06330713808416245,0.0,2.9913814445069596e-05
1626109842.737648,-0.135172390013647,-1.7242458732824307e-06,5.87,4.29,8.989343882603862e-07,-8.362179869436659e-06,1.402438998222351,-0.00732421875,0.02880859375,0.10173939110000524,0.007917387898405804,0.0,0.0,-2.359261986628294,0.0,0.002811520360323957,0.002811520628009115,0.06330696931071642,0.06331438288548893,0.0,3.128755949303414e-05
1626109842.797648,-0.11988972529633558,-1.2052601463189191e-06,5.88,4.27,9.100322699850949e-07,-8.465416613034904e-06,1.402438998222351,-0.00732421875,0.02880859375,0.10173939123643352,0.005470909719945983,0.0,0.0,-2.3593381848762682,1.0,0.0028115203597118324,0.002811520627390147,0.06330696931071642,0.0633143826688795,0.0,3.0495824160876994e-05
1626109842.879648,-0.08838551140374633,-1.2046076171354675e-06,5.86,4.26,0.00673372857272625,0.41165873408317566,1.402438998222351,-0.009765625,0.01171875,0.07654865754602752,0.08088568408851443,0.0,0.0,-2.3485200254163785,1.0,0.002811476306196595,0.002811476423564257,0.06330922996244084,0.06331577781097865,0.0,6.180691613696806e-06
1626109842.917648,-0.08886602216158171,-9.838598783886867e-06,5.86,4.26,0.00673372857272625,0.41165873408317566,-18.109756469726562,-0.0419921875,-0.00341796875,0.06570952608319466,0.16005136014598853,0.0,0.0,-2.3279574915339984,1.0,0.003151246136434451,0.00315124572559145,0.06375041141259848,0.0637564971450229,0.0,-3.3018055141400955e-05
1626109842.983648,-0.06610616285063897,-2.374766340934199e-05,5.87,4.24,0.01158180646598339,0.6677072644233704,-18.109756469726562,-0.0419921875,-0.00341796875,0.056456395802766235,0.20425839632593681,0.0,0.0,-2.2995863378289436,1.0,0.0028529043996417796,0.002852903486651974,0.06336664305668704,0.06337220583173926,0.0,-9.706288670498903e-05
1626109843.041067,-0.0677236084233153,-4.584276561347362e-05,5.87,4.24,0.01018305029720068,0.890632688999176,-41.70731735229492,0.013671875,-0.09814453125,0.048350350852868436,0.19376841282631307,0.0,0.0,-2.2602718184616224,1.0,0.002820287176108088,0.002820285570637144,0.0633408314148683,0.06334591262444889,0.0,-0.00018703013042348888
1626109843.1010668,-0.05819191335391947,-7.650296594932543e-05,5.91,4.22,0.010553695261478424,0.9233448505401611,-41.70731735229492,0.013671875,-0.09814453125,0.048350350852868436,0.19376841282631307,0.0,0.0,-2.2602718184616224,1.0,0.002820287176108088,0.002820285570637144,0.0633408314148683,0.06334591262444889,0.0,-0.00018703013042348888
1626109843.161067,-0.04985609170751563,-0.00010971062761636858,5.88,4.21,0.01167103461921215,1.0214308500289917,-52.256099700927734,0.072265625,-0.08251953125,0.03525430951292337,0.17858338341311208,0.0,0.0,-2.1590648164903947,1.0,0.002811567368995676,0.0028115641947933953,0.06334310346642755,0.06334727689850667,0.0,-0.0003983600295302168
1626109843.221067,-0.04129240071088178,-0.00014658262367218947,5.88,4.21,0.01167103461921215,1.0214308500289917,-56.219512939453125,-0.06005859375,0.09423828125,0.02933037912435441,0.1703353590043486,0.0,0.0,-2.099195881710426,1.0,0.003843958423330145,0.003843950449809735,0.06466819028479054,0.06467197290802078,0.0,-0.0005153865756356603
1626109843.299067,-0.029868007010477357,-0.00018319780172952325,5.82,4.21,0.00883395504206419,0.950733482837677,-56.219512939453125,-0.06005859375,0.09423828125,0.02529884943805783,0.16975198380970574,0.0,0.0,-2.0453254611319,1.0,0.002811148945014827,0.002811144504564659,0.06335387296080865,0.06335723993280275,0.0,-0.0006006265005407226
1626109843.3410668,-0.03035751841732249,-0.00020997612132129962,5.82,4.21,0.00841117650270462,0.9059099555015564,-52.317073822021484,0.0283203125,0.04541015625,0.021312034776565333,0.16704757344279955,0.0,0.0,-1.9892798053052978,1.0,0.002811129300746411,0.0028111245883553015,0.06334762920455983,0.06335063590118348,0.0,-0.0006792323510599532
1626109843.401067,-0.025148487150615798,-0.0002326780406541578,5.75,4.22,0.010496027767658234,0.9238812923431396,-52.317073822021484,0.0283203125,0.04541015625,0.021312034776565333,0.16704757344279955,0.0,0.0,-1.9892798053052978,1.0,0.002811129300746411,0.0028111245883553015,0.06334762920455983,0.06335063590118348,0.0,-0.0006792323510599532
1626109843.487067,-0.017815540575755198,-0.00025045369134735326,5.71,4.23,0.012594158761203289,0.9399210214614868,-52.13414764404297,-0.05859375,-0.0322265625,0.014772226913568895,0.16416042343700077,0.0,0.0,-1.8786857007129312,1.0,0.0028110663101983437,0.002811061508829491,0.0633602037804879,0.06336257981301849,0.0,-0.0008002494548553542
1626109843.521067,-0.018082327700667054,-0.00026399220097524014,5.71,4.23,0.012594158761203289,0.9399210214614868,-54.69512176513672,0.0615234375,0.06689453125,0.011982522932473287,0.1641073871995649,0.0,0.0,-1.8225072441879937,1.0,0.0028110879031932865,0.002811083235186196,0.0633765856034273,0.06337868862478199,0.0,-0.0008604600646351177
1626109843.5810668,-0.015472023039169036,-0.0002792831532662487,5.68,4.22,0.01280474103987217,0.9510124921798706,-54.69512176513672,0.0615234375,0.06689453125,0.009550332595503336,0.16501970982065858,0.0,0.0,-1.7659271535226786,0.0,0.002811051962776364,0.002811047541594714,0.06338538178785368,0.0633872375750914,0.0,-0.0009090065378041126
1626109843.641067,-0.012494282453509937,-0.0002901794294062699,5.68,4.22,0.010021218098700047,0.8796709179878235,-53.719512939453125,0.02001953125,-0.0185546875,0.007412406579468648,0.16640098229714573,0.0,0.0,-1.7097736522982752,0.0,0.002811000777399417,0.002810996664465794,0.06340550237498356,0.06340713565525624,0.0,-0.0009486315286908298
1626109843.701067,-0.010126018132409164,-0.00029768459074350337,5.7,4.22,0.005544301122426987,0.3130379915237427,-53.719512939453125,0.02001953125,-0.0185546875,0.007412406579468648,0.16640098229714573,0.0,0.0,-1.7097736522982752,0.0,0.002811000777399417,0.002810996664465794,0.06340550237498356,0.06340713565525624,0.0,-0.0009486315286908298
1626109843.799067,-0.005803538304231417,-0.000288088169803637,5.68,4.21,0.0017568396870046854,-0.01634269393980503,-10.243902206420898,0.04150390625,0.04638671875,0.004706811668812103,0.15726273882809702,0.0,0.0,-1.650220820595377,0.0,0.0028110609005835784,0.002811057508519847,0.06342414674912521,0.06342540067691985,0.0,-0.0008975640928799624
1626109843.8210669,-0.005859467132736691,-0.00026541461610870616,5.68,4.21,0.0017568396870046854,-0.01634269393980503,2.2560975551605225,0.00048828125,0.03076171875,0.0039571376416052215,0.12930111052154453,0.0,0.0,-1.6443270124944673,0.0,0.002924122644393756,0.0029241193948165026,0.0635741107346159,0.06357520482584994,0.0,-0.0008468642823094202
1626109843.883067,-0.003965102940076848,-0.0002404609884022646,5.73,4.2,0.002099159639328718,-0.016030224040150642,2.2560975551605225,0.00048828125,0.03076171875,0.003409067908320642,0.12053963286747832,0.0,0.0,-1.6422663955807923,0.0,0.002811498444250401,0.002811495793107646,0.06343169995523686,0.06343265159816937,0.0,-0.0007962051766740922
1626109843.941067,-0.004074282449312061,-0.00021670401364241813,5.73,4.2,2.5935569283319637e-06,-2.412611138424836e-05,1.402438998222351,-0.0029296875,0.0126953125,0.002943020825504088,0.0369418653900035,0.0,0.0,-1.6446838438418667,0.0,0.0028115677396618344,0.002811565426909319,0.06341601263169194,0.06341683790446187,0.0,-0.0007558996344966019
1626109844.001067,-0.003348893130100163,-0.000196256409605894,5.72,4.22,2.5935569283319637e-06,-2.412611138424836e-05,1.402438998222351,-0.0029296875,0.0126953125,0.002943020825504088,0.0369418653900035,0.0,0.0,-1.6446838438418667,0.0,0.0028115677396618344,0.002811565426909319,0.06341601263169194,0.06341683790446187,0.0,-0.0007558996344966019
1626109844.0610669,-0.0030246594024791085,-0.00017613465849929209,5.7,4.23,2.5623094188631512e-06,-2.3835436877561733e-05,1.2804877758026123,-0.0146484375,0.0205078125,0.0022039495968170166,0.01776121954636714,0.0,0.0,-1.6451470344181165,0.0,0.002811720739469647,0.0028117189992014208,0.06338866042973561,0.06338927610729425,0.0,-0.0006729893572053229
1626109844.121067,-0.0025377486428943383,-0.00015757170463766954,5.7,4.23,2.5935569283319637e-06,-2.412611138424836e-05,1.2804877758026123,-0.00146484375,0.001953125,0.0018819504097151083,0.010491926648407656,0.5,0.0,-1.645268546506828,0.0,0.003611858743014308,0.0036118563523806265,0.0644040569746513,0.06440458578273121,0.0,-0.0006367818992290327
1626109844.195067,-0.00190868054214901,-0.00014007857778648377,5.73,4.23,2.5935569283319637e-06,-2.412611138424836e-05,1.2804877758026123,-0.00146484375,0.001953125,0.019807081204122872,0.009970719245620123,0.5,0.0,-1.6455178158432935,0.0,0.002811733281277389,0.002811731988454692,0.0633682453393172,0.063368699640805,0.0,-0.0005982648548305313
1626109844.241067,0.3983455714741427,-0.00012369194997456325,5.73,4.23,0.012918438762426376,-0.09919887036085129,1.585365891456604,-0.00634765625,-0.0029296875,0.04172121274357494,0.009229049427725634,0.5,0.0,-1.647072829704965,0.0,0.0028116645004654813,0.0028116619100273512,0.0633684731503792,0.0633688653335205,0.0,-0.0005627495126387599
1626109844.3010669,0.3837370347384478,-0.00010821232181182407,5.75,4.23,0.0756811574101448,-0.09753496199846268,1.585365891456604,-0.00634765625,-0.0029296875,0.041721209719566416,0.0067043760663779844,0.5,0.0,-1.6471542634919492,0.0,0.0028116645003393764,0.0028116619100261838,0.06336847315037593,0.06336886533308653,0.0,-0.0005627843303307935
1626109844.383067,0.3493071968018629,-9.772085672501098e-05,5.74,4.22,0.2722829282283783,0.015529180876910686,-1.7682926654815674,0.0478515625,-0.01611328125,0.08608900988192003,-0.0025275314847081594,0.5,0.0,-1.6565566885100564,0.0,0.0028116058154531547,0.002811594193151837,0.06335802777353318,0.0633583772593841,0.0,-0.0005436617423545093
1626109844.421067,0.3438924289884996,-9.621219823883296e-05,5.74,4.22,0.3760066628456116,0.03301001712679863,-1.7682926654815674,0.0478515625,-0.01611328125,0.08689082870023004,0.006628188523636568,0.5,0.0,-1.656367831226489,0.0,0.0031514132549047605,0.003151388652867773,0.06379379017631608,0.06379419645217405,0.0,-0.0005473302017574831
1626109844.487067,-0.08741531327738916,-9.359813149501366e-05,5.71,4.19,0.3760066628456116,0.03301001712679863,-1.7682926654815674,0.0478515625,-0.01611328125,0.09475847685901091,0.006297245704155472,0.5,0.0,-1.6554490940052926,0.0,0.0028116011254317903,0.0028115825473707594,0.06335516895020668,0.06335566243312948,0.0,-0.000527543093961269
1626109844.541067,-0.08227630724881613,-8.160049185594964e-05,5.71,4.19,0.47004422545433044,0.032104767858982086,-1.097561001777649,-0.1171875,-0.546875,0.10772066813849239,0.006002793763227733,0.5,0.0,-1.6537371889070904,0.0,0.0028115296764286784,0.0028115098089344587,0.06336093079954074,0.06336153161033255,0.0,-0.0004743553305805477
1626109844.6010668,-0.08790080200082141,-5.6494424752555615e-05,5.72,4.18,0.5091395378112793,0.016407206654548645,0.3048780560493469,0.4638671875,-0.19677734375,0.10772068129116014,0.017904702579694166,0.5,0.0,-1.6533698772697456,0.0,0.002811529676153211,0.0028115098089320713,0.06336093079953818,0.06336153159885281,0.0,-0.00047347380373529346
1626109844.695067,-0.1244010969565562,-2.1838157226837435e-05,5.71,4.19,0.5249208807945251,0.032729510217905045,-0.8536585569381714,-0.2724609375,0.12744140625,0.14273919569241333,0.02597541302312874,0.5,0.0,-1.6501137638303398,0.0,0.0028115334427665827,0.00281150375085286,0.06335170111683751,0.0633525849814014,0.0,-0.0003265165446354636
1626109844.721067,-0.11074905559697293,7.318352096117812e-06,5.71,4.19,0.5135968923568726,0.0003132163255941123,-0.8536585569381714,-0.2724609375,0.12744140625,0.1600554010826947,0.030741764278269156,0.5,0.0,-1.648306386293736,0.0,0.002811653768964862,0.0028116104476350037,0.06334765838874057,0.06334876213176395,0.0,-0.0002651452639952202
1626109844.781067,-0.12496050692252815,3.320584817262246e-05,5.68,4.16,0.5039443969726562,-0.0008113618823699653,1.5243902206420898,-0.10009765625,0.3037109375,0.1753182183134572,0.02888518994328675,0.5,0.0,-1.646847995595366,0.0,0.002811567375724751,0.002811512940684071,0.0633531728247829,0.06335457410999186,0.0,-0.00020623388820944908
1626109844.8410668,-0.15091262843911776,5.72190502056004e-05,5.68,4.16,0.5039443969726562,-0.0008113618823699653,1.5243902206420898,-0.10009765625,0.3037109375,0.18828651213892286,0.02352831918320359,0.5,0.0,-1.646004264192675,0.0,0.002811547007686602,0.0028114875020551844,0.06333877480524062,0.06334052155841942,0.0,-0.000167479150673313
1626109844.901067,-0.15938717785067522,7.28652996395659e-05,5.63,4.12,0.49575337767601013,0.01693471521139145,1.097561001777649,-0.0361328125,0.134765625,0.18828651213892286,0.02352831918320359,0.5,0.0,-1.646004264192675,0.0,0.002811547007686602,0.0028114875020551844,0.06333877480524062,0.06334052155841942,0.0,-0.000167479150673313
1626109844.987067,-0.19888235239127577,8.194262639993353e-05,5.58,4.07,0.4978174865245819,-2.412611138424836e-05,0.4878048896789551,0.2109375,0.21728515625,0.2082309818373892,0.006784315851325499,0.5,0.0,-1.6457892015823108,0.0,0.0028116767279091565,0.002811593463777371,0.06332182176832178,0.06332448568339394,0.0,-0.00013454814099740894
1626109845.021067,-0.1859730189151751,8.622874596960523e-05,5.58,4.07,0.4897226095199585,0.016192341223359108,0.4878048896789551,0.2109375,0.21728515625,0.21398026559177707,0.008481787785434656,0.5,0.0,-1.6456302919375412,0.0,0.003380581216777651,0.003380440154827715,0.06405015844938801,0.06405340675458966,0.0,-0.00012554756313470434
1626109845.0910668,-0.21614167894963185,8.9389267043742e-05,5.59,4.03,0.5101845264434814,-0.01658685877919197,-0.3658536672592163,0.20068359375,-0.52099609375,0.22307737723887822,0.008034609937608319,0.0,0.0,-1.6457072780921702,0.0,0.0028116770381465643,0.002811571291750612,0.06331732947312128,0.06332115428659026,0.0,-0.00012430580671973215
1626109845.141067,-0.20671170564059763,9.01424462423922e-05,5.59,4.03,0.5101845264434814,-0.01658685877919197,-0.3658536672592163,0.20068359375,-0.52099609375,0.22898737005307634,0.007523459311031694,0.0,0.0,-1.645719201485925,0.0,0.0028116080954884368,0.0028114947303405063,0.06332420190104,0.06332866154530041,0.0,-0.00011572355834658678
1626109845.201067,-0.21598286826421526,9.310485033730709e-05,5.6,3.99,0.44115835428237915,-0.01662851683795452,-1.7682926654815674,0.01904296875,0.068359375,0.22898737307999295,0.016096841942485757,0.0,0.0,-1.645451889574155,0.0,0.0028116080927362654,0.0028114947303246904,0.06332420190103974,0.06332866137495148,0.0,-0.00011329083928801427
1626109845.279067,-0.23271617953911497,9.828842848418828e-05,5.57,3.96,0.25653576850891113,0.016094353049993515,4.45121955871582,0.09033203125,0.35009765625,0.2326133677483312,0.01869618517690921,0.0,0.0,-1.644780870249471,0.0,0.002811606059045134,0.002811484298350199,0.06332513895912945,0.06333083582475467,0.0,-9.335735836624482e-05
1626109845.3210669,-0.22350545210399123,9.95126100089622e-05,5.54,3.93,0.1468828171491623,0.016380175948143005,4.45121955871582,0.09033203125,0.35009765625,0.22659903244640237,0.01494516356740742,0.0,0.0,-1.6443515983254264,0.0,0.0029243804873729895,0.0029242433906328806,0.0634743701391451,0.06348068274493328,0.0,-8.250850282025398e-05
1626109845.383067,-0.2270531065534408,0.0001018637346522761,5.54,3.93,0.06339164823293686,-0.00028292174101807177,3.1097562313079834,-0.01708984375,0.087890625,0.21574237566702956,0.014046538809149033,0.0,0.0,-1.644221306859579,0.0,0.0028115678776320127,0.002811445169023679,0.06333590576226823,0.06334277141913518,0.0,-7.154538519937304e-05
1626109845.441067,-0.22575848255890021,0.00010384514188631087,5.53,3.9,0.003961939364671707,-0.000510037993080914,3.1097562313079834,-0.01708984375,0.087890625,0.19947936711996964,0.0075753482820049315,0.0,0.0,-1.6443637008460812,0.0,0.002811531154403286,0.0028114267869422016,0.06332637511328358,0.06333366731273464,0.0,-6.124621923546472e-05
1626109845.501067,-0.2070871453917803,0.00010515942973724941,5.53,3.9,0.003961939364671707,-0.000510037993080914,0.5487805008888245,-0.0087890625,-0.00341796875,0.19947936711996964,0.0075753482820049315,0.0,0.0,-1.6443637008460812,0.0,0.002811531154403286,0.0028114267869422016,0.06332637511328358,0.06333366731273464,0.0,-6.124621923546472e-05
1626109845.593297,-0.17859278596813274,0.00010656964012821236,5.52,3.89,3.6637788980442565e-06,-3.4081662306562066e-05,0.9756097793579102,-0.00048828125,0.01806640625,0.15788535334465087,0.030835878757921386,0.0,0.0,-1.6439098525693905,1.0,0.002817475908941794,0.002817394779132918,0.06332110952357607,0.06332888773645558,0.0,-3.3756441349986275e-05
1626109845.623297,-0.17695730959502184,0.00010936993452430153,5.51,3.88,0.0038025795947760344,0.33044537901878357,0.9756097793579102,-0.00048828125,0.01806640625,0.13632945644225195,0.06263942217046642,0.0,0.0,-1.642061543165765,1.0,0.0036129428482634604,0.0036128349475541294,0.06433855858248709,0.06434642002952906,0.0,-1.1901822774446473e-05
1626109845.697297,-0.13826516568209368,0.00011417055251639728,5.51,3.88,0.007048827596008778,0.44488754868507385,-21.64634132385254,-0.02099609375,0.0341796875,0.12042965468863875,0.10176590069516007,0.0,0.0,-1.6307612605575688,1.0,0.0028118841868103994,0.0028118259561033775,0.06330933626615033,0.06331699723397645,0.0,-4.1084757222760537e-05
1626109845.743297,-0.13986301217802583,0.00010139550592751962,5.52,3.88,0.012104114517569542,0.7263144850730896,-21.64634132385254,-0.02099609375,0.0341796875,0.10449977007401653,0.18069609144104648,0.0,0.0,-1.608826360749158,1.0,0.0028116904744808387,0.002811644520093308,0.06328992465129682,0.06329732322747725,0.0,-9.771561278410229e-05
1626109845.803297,-0.11908089404679789,7.842959104431186e-05,5.52,3.88,0.012104114517569542,0.7263144850730896,-43.414634704589844,-0.06982421875,-0.029296875,0.10449977007401653,0.18069609144104648,0.0,0.0,-1.608826360749158,1.0,0.0028116904744808387,0.002811644520093308,0.06328992465129682,0.06329732322747725,0.0,-9.771561278410229e-05
1626109845.885297,-0.0902749862512722,4.047725389976143e-05,5.51,3.86,0.007028996478766203,0.9681339263916016,-53.29268264770508,0.0751953125,-0.11328125,0.0777478929201754,0.2146595244489574,0.0,0.0,-1.5332634279970923,1.0,0.002811505951605244,0.0028114732086053956,0.06328360931741236,0.06329025961227239,0.0,-0.00035128556184189073
1626109845.9232972,-0.09092527169596085,-1.383387622433895e-05,5.51,3.86,0.008796059526503086,0.9396949410438538,-53.29268264770508,0.0751953125,-0.11328125,0.06640621282459896,0.20381659834193788,0.0,0.0,-1.4820622961805263,1.0,0.003150983861228622,0.0031509499266031997,0.06373071157068236,0.06373694272644016,0.0,-0.000509259207214107
1626109845.9892972,-0.06680705797578941,-6.865988303322022e-05,5.51,3.86,0.010793214663863182,0.9445335865020752,-54.024391174316406,-0.0078125,-0.02099609375,0.05724763491622319,0.1972644170396827,0.0,0.0,-1.4292774488720064,1.0,0.0028111888702498696,0.002811165234918287,0.06330744431135726,0.06331319581888731,0.0,-0.0006617119333842041
1626109846.043297,-0.06845491794304016,-0.00012042275794170985,5.5,3.89,0.0128178047016263,0.9396485686302185,-54.024391174316406,-0.0078125,-0.02099609375,0.048904954942737146,0.190865251267271,0.0,0.0,-1.3739017821867718,1.0,0.0028110130408039247,0.0028109933170158957,0.06333079089387815,0.06333608130505013,0.0,-0.0007950785469503096
1626109846.103297,-0.05905376216885071,-0.00016393982990838216,5.5,3.89,0.0128178047016263,0.9396485686302185,-53.04878234863281,-0.015625,0.0419921875,0.048904954942737146,0.190865251267271,0.5,0.0,-1.3739017821867718,0.0,0.0028110130408039247,0.0028109933170158957,0.06333079089387815,0.06333608130505013,0.0,-0.0007950785469503096
1626109846.197297,0.34735177505459025,-0.00020396239832128117,5.49,3.9,0.04391926899552345,0.8508783578872681,-51.219512939453125,-0.1064453125,-0.0703125,0.08113265525820329,0.182055783813238,0.5,0.0,-1.2624317444459012,0.0,0.0028108982931840535,0.0028108789897941964,0.06335990842839467,0.06336432757101118,0.0,-0.0011004365213769496
1626109846.223297,0.3359685751480308,-0.0002625958827147378,5.46,3.87,0.11587259918451309,1.0061674118041992,-51.219512939453125,-0.1064453125,-0.0703125,0.09641379864792508,0.1788909581360218,0.5,0.0,-1.2087107259873666,0.0,0.0028110347455508893,0.00281101089181209,0.06337402226859795,0.06337809458513854,0.0,-0.0011744588016831545
1626109846.283297,0.31778372027539803,-0.00028135928181059413,5.46,3.87,0.20625467598438263,1.005609393119812,-71.46341705322266,0.0126953125,0.29931640625,0.11309461162948951,0.17693871623048732,0.5,0.0,-1.1534993339428736,0.0,0.0028109825468377093,0.002810955896532769,0.06339589426755089,0.06339970152651628,0.0,-0.0009653614703388488
1626109846.343297,0.3218789094125609,-0.00019644129335601808,5.44,3.88,0.3064037561416626,0.9686998724937439,-71.46341705322266,0.0126953125,0.29931640625,0.1320756299636649,0.17695941273592852,0.5,0.0,-1.0941771154994802,0.0,0.0028109720226866864,0.0028109448216233086,0.06339699008182463,0.0634006051856574,0.0,-0.00039356055704433996
1626109846.4032972,0.2993434894850705,1.822194099196836e-05,5.44,3.88,0.3857673108577728,0.8897950053215027,-69.63414764404297,-0.3779296875,0.20556640625,0.1320756299636649,0.17695941273592852,0.5,0.0,-1.0941771154994802,0.0,0.0028109720226866864,0.0028109448216233086,0.06339699008182463,0.0634006051856574,0.0,-0.00039356055704433996
1626109846.4892972,-0.1296904152375299,0.00041800976252477575,5.39,3.86,0.45008090138435364,0.4393211007118225,-34.817073822021484,-0.42724609375,-0.27880859375,0.1332461837991605,0.17862996447050367,0.5,0.0,-0.9779957327156074,0.0,0.002811083332267492,0.0028110599048044365,0.06340877152233183,0.06341226300799177,0.0,0.0022377438438151665
1626109846.523297,-0.12220151225874593,0.0009705907246666565,5.34,3.84,0.5012787580490112,0.21417836844921112,-34.817073822021484,-0.42724609375,-0.27880859375,0.14013585875788837,0.17522580848575933,0.5,0.0,-0.9312276376340599,0.0,0.003379693385003327,0.0033796683864089545,0.06415029964237774,0.06415380498328101,0.0,0.004011932234616001
1626109846.593297,-0.1415513711191407,0.0015904062975828038,5.34,3.84,0.5316956043243408,0.13191036880016327,-4.5731706619262695,0.20654296875,-0.28662109375,0.1533820271621162,0.17178811340585307,0.5,0.0,-0.9035889965675695,0.0,0.0028112143941959626,0.0028112001022992782,0.06342549174604697,0.06342900369645392,0.0,0.005485855599600659
1626109846.6432972,-0.1326970373228146,0.0020973205036957836,5.31,3.81,0.533108115196228,0.050230443477630615,-4.5731706619262695,0.20654296875,-0.28662109375,0.16721344253055226,0.16354398839560516,0.5,0.0,-0.8867565125460501,0.0,0.00281133228195335,0.002811320784635349,0.06343537039496616,0.06343895260110857,0.0,0.0064835630955805265
1626109846.7032971,-0.14491056399921073,0.00241405048736978,5.31,3.81,0.5128396153450012,0.06679362803697586,-4.634146213531494,0.13720703125,0.32373046875,0.16721443839944966,0.25092839881125734,0.5,0.0,-0.883095421164096,0.0,0.002811332231963309,0.0028113207501481866,0.06343537039330106,0.06343895232160769,0.0,0.006496465612654662
1626109846.7812972,-0.18108703180304464,0.0025202380802042098,5.28,3.79,0.4956865906715393,0.01631343737244606,-6.5853657722473145,-0.3193359375,0.07861328125,0.19373578269704148,0.22053153594368916,0.0,0.0,-0.8675083840437758,0.0,0.002811607878493695,0.00281159968256332,0.06342934927864816,0.06343322665730278,0.0,0.006910377794317891
1626109846.823297,-0.16924818014382817,0.0024602975918240474,5.26,3.79,0.4582810401916504,0.03296728432178497,-6.5853657722473145,-0.3193359375,0.07861328125,0.20368719511538852,0.20554080810576553,0.0,0.0,-0.8644769787311015,0.0,0.0029244676937349575,0.0029244582286482353,0.06357149139628061,0.0635756416597996,0.0,0.006684458048577418
1626109846.885297,-0.20409535624251765,0.002324616924863689,5.26,3.79,0.38591378927230835,0.015484287403523922,3.9634146690368652,-0.00244140625,0.140625,0.21190923413520452,0.19220364817896288,0.0,0.0,-0.8624278777624365,0.0,0.002811684295475083,0.0028116750347875526,0.0634249145174738,0.06342940260265864,0.0,0.006340246917913495
1626109846.9432971,-0.19632091286534878,0.0021528077033688103,5.23,3.78,0.28266894817352295,0.0007663130527362227,3.9634146690368652,-0.00244140625,0.140625,0.21576761444019388,0.1672234593764116,0.0,0.0,-0.8608425218337206,0.0,0.0028116685753690083,0.0028116596175523033,0.06340742040829123,0.06341227179688294,0.0,0.005954185009299331
1626109847.003297,-0.19612956456112246,0.0019679872737167043,5.23,3.78,0.18209220468997955,0.01666170358657837,1.097561001777649,0.02001953125,0.28564453125,0.21576761444019388,0.1672234593764116,0.0,0.0,-0.8608425218337206,0.0,0.0028116685753690083,0.0028116596175523033,0.06340742040829123,0.06341227179688294,0.0,0.005954185009299331
1626109847.093297,-0.21415543074096266,0.0017984912016547965,5.21,3.77,0.09018438309431076,1.3556108569900971e-05,1.402438998222351,0.005859375,0.12451171875,0.20683737770051236,0.13085339675536703,0.0,0.0,-0.8592984760911443,0.0,0.0028117634469627356,0.0028117538388468272,0.06337951751956694,0.06338519146198388,0.0,0.005273030438366273
1626109847.123297,-0.20577358293913636,0.0016393324963277244,5.18,3.76,0.01583455316722393,0.0002625635243020952,0.9756097793579102,-0.00048828125,0.00048828125,0.19099477361405207,0.05530398083208998,0.0,0.0,-0.861337290879758,0.0,0.003611921548121771,0.003611905672650253,0.06439501025097863,0.06440113362503162,0.0,0.0050099473624042835
1626109847.197297,-0.19370609358319915,0.0014998419225469308,5.18,3.76,1.608212073733739e-06,-1.4960112821427174e-05,0.9756097793579102,-0.00048828125,0.00048828125,0.1762406340435371,0.05246320000074114,0.0,0.0,-0.8624500834297455,0.0,0.002811766320257779,0.002811757073682358,0.06335977327116735,0.0633661659091567,0.0,0.004749474690287947
1626109847.243297,-0.19318469541416455,0.0013771354038971423,5.17,3.75,2.693694796107593e-06,2.5057626771740615e-05,0.9756097793579102,-0.00048828125,0.00048828125,0.15678632852817698,0.024650421263442142,0.0,0.0,-0.8640260714853276,0.0,0.0028117737479020815,0.002811766144144648,0.06333469825843799,0.06334127869316583,0.0,0.004523965969073014
1626109847.303297,-0.17285220871898968,0.001262256372651388,5.17,3.75,2.693694796107593e-06,2.5057626771740615e-05,1.9512195587158203,-0.00439453125,0.00439453125,0.15678632852817698,0.024650421263442142,0.0,0.0,-0.8640260714853276,0.0,0.0028117737479020815,0.002811766144144648,0.06333469825843799,0.06334127869316583,0.0,0.004523965969073014
1626109847.385297,-0.13772337432548443,0.0011521628321630015,5.16,3.73,2.693694796107593e-06,2.5057626771740615e-05,1.3414634466171265,-0.00146484375,-0.00634765625,0.10407799540250706,0.012600883461572438,0.0,0.0,-0.8652632223627159,0.0,0.0031513880756756365,0.0031513830318840572,0.06375448601497065,0.06376094122445082,0.0,0.003884738097463637
1626109847.4232972,-0.13808439966910227,0.0010456378243714661,5.16,3.73,2.693694796107593e-06,2.5057626771740615e-05,1.3414634466171265,-0.00146484375,-0.00634765625,0.09097718327102174,0.011876792031563136,0.0,0.0,-0.8654981382608887,0.0,0.0028115476639664883,0.0028115442766154996,0.06331989120953625,0.06332606726307177,0.0,0.0036717635193548852
1626109847.4892972,-0.10470616826300148,0.0009425353203521629,5.16,3.73,2.693694796107593e-06,2.5057626771740615e-05,1.2804877758026123,-0.00634765625,0.00830078125,0.0789483543558111,0.011115087066378504,0.0,0.0,-0.8655898160150196,0.0,0.002811458472196998,0.0028114557636007903,0.06332985845775153,0.06333571142127592,0.0,0.003470554831950914
1626109847.543297,-0.106827430355891,0.000843999929282132,5.15,3.73,2.693694796107593e-06,2.5057626771740615e-05,1.2804877758026123,-0.00634765625,0.00830078125,0.07894838157507073,0.007656976750993426,0.0,0.0,-0.8656983842415292,0.0,0.002811458471730632,0.002811455763208222,0.06332985845761524,0.06333571126783044,0.0,0.0034696415111862377
1626109847.603297,-0.09339441140687485,0.0007500849666976752,5.15,3.73,2.693694796107593e-06,2.5057626771740615e-05,1.3414634466171265,-0.00244140625,0.0166015625,0.06847440898478283,0.007171396236537342,0.0,0.0,-0.8657809635494191,0.0,0.002811377032339712,0.0028113748392237835,0.06334260745335085,0.06334809234971346,0.0,0.003274747860455459
1626109847.6632972,-0.0810597463788459,0.0006605106277483741,5.14,3.72,2.7269502425042447e-06,2.5366980480612256e-05,1.3414634466171265,-0.0029296875,0.005859375,0.0515125159223529,0.0038038239959892065,0.0,0.0,-0.8659545864420087,0.0,0.0028115649538122426,0.0028115633999126312,0.06332756152614273,0.06333224403648784,0.0,0.0029050823839900236
1626109847.723297,-0.06798420851864556,0.0005759382193516257,5.14,3.73,2.7269502425042447e-06,2.5366980480612256e-05,1.2804877758026123,-0.00244140625,0.0,0.04465303394818005,0.0035646927779313955,0.0,0.0,-0.8659878483209315,0.0,0.002811473114005251,0.0028114717984612024,0.063335992653268,0.06334028018169081,0.0,0.0027318317599259977
1626109847.783297,-0.057568097770434416,0.0004961181172863864,5.14,3.73,2.693694796107593e-06,2.5057626771740615e-05,1.2804877758026123,-0.00244140625,0.0,0.0387308491342715,0.0031369805832937724,0.0,0.0,-0.8660141696519569,0.0,0.002811453033216323,0.002811451926469916,0.06332416818308813,0.06332807052083939,0.0,0.0025654234181568636
1626109847.843297,-0.05289872237822219,0.0004209202504917675,5.14,3.73,2.693694796107593e-06,2.5057626771740615e-05,1.3414634466171265,0.0,0.00146484375,0.0387308491342715,0.0031369805832937724,0.0,0.0,-0.8660141696519569,0.0,0.002811453033216323,0.002811451926469916,0.06332416818308813,0.06332807052083939,0.0,0.0025654234181568636
1626109847.9032972,-0.043980086401834935,0.00035016580435014654,5.14,3.73,2.693694796107593e-06,2.5057626771740615e-05,1.3414634466171265,0.0,0.00146484375,0.03269708992467208,0.002725912037803428,0.0,0.0,-0.8659628713981865,0.0,0.004317651425963187,0.004317649288711232,0.06523004053308971,0.06523362042383339,0.0,0.0024139041048078917
1626109847.9892972,-0.03356990732723528,0.00028369003591690087,5.14,3.73,2.693694796107593e-06,2.5057626771740615e-05,1.1585365533828735,-0.0029296875,0.00244140625,0.02525032157411678,0.0021483236434714508,0.0,0.0,-0.8660460066901674,0.0,0.0033178269781624107,0.003317825980821285,0.06396741002774502,0.06397031298980463,0.0,0.0021196608736556285
1626109848.023297,-0.03360148793429442,0.0002213291769463825,5.14,3.73,2.693694796107593e-06,2.5057626771740615e-05,1.3414634466171265,0.0009765625,0.0107421875,0.022144743520495377,0.0020346671972443393,0.0,0.0,-0.8660764947345976,0.0,0.0027982065845881194,0.0027982059520001703,0.06329287782816727,0.06329547513820274,0.0,0.0019809055613404705
1626109848.0884259,-0.02550537296405532,0.00016655580160023184,5.14,3.73,2.693694796107593e-06,2.5057626771740615e-05,1.3414634466171265,0.0009765625,0.0107421875,0.019214713273239377,0.002089778507713803,0.0,0.0,-0.8660772901645681,0.0,0.0028087523084861475,0.0028087517504308754,0.06328363593729741,0.06328595870218937,0.0,0.0018482916687585177
1626109848.138426,-0.025927360237403416,0.00011234728688383106,5.14,3.72,2.693694796107593e-06,2.5057626771740615e-05,1.3414634466171265,0.00537109375,0.00830078125,0.019214713273239377,0.002089778507713803,0.0,0.0,-0.8660772901645681,0.0,0.0028087523084861475,0.0028087517504308754,0.06328363593729741,0.06328595870218937,0.0,0.0018482916687585177
1626109848.198426,-0.021986258491814344,6.109553292309759e-05,5.14,3.72,2.7269502425042447e-06,2.5366980480612256e-05,1.3414634466171265,0.00537109375,0.00830078125,0.01635588188293484,0.0020776457747702986,0.0,0.0,-0.8660423061009925,0.0,0.0038442466448093794,0.0038442457660377047,0.06460130076359376,0.0646033863131458,0.0,0.00172210912303379
1626109848.2764258,-0.016655683136797713,1.3152197199839793e-05,5.14,3.72,2.693694796107593e-06,2.5057626771740615e-05,1.3414634466171265,-0.00390625,0.0078125,0.012497157135506224,0.002121144644301226,0.0,0.0,-0.8660767887903599,0.0,0.0029242139804532626,0.00292421357606072,0.06343154177419588,0.06343317933292275,0.0,0.0014862642170747338
1626109848.318426,-0.016804456116751243,-3.154391750588803e-05,5.14,3.73,2.693694796107593e-06,2.5057626771740615e-05,1.3414634466171265,0.005859375,0.0,-0.017620687675822807,0.0019921796624128535,-0.5,0.0,-0.8660844440515973,0.0,0.002811387067037675,0.0028113867372434394,0.06329802561711194,0.06329947522053134,0.0,0.001377210773139329
1626109848.380426,-0.012522204125058322,-7.312690626259392e-05,5.14,3.73,0.0039657121524214745,2.4755727281444706e-05,1.3414634466171265,0.005859375,0.0,-0.03970609928635721,0.001970750156055982,-0.5,0.0,-0.8660852444694729,0.0,0.002811357031992291,0.002811356416244396,0.0632936127745964,0.06329489184742396,0.0,0.0012731282791746729
1626109848.438426,-0.5126417382109127,-0.00011171808533322762,5.13,3.71,0.04879092052578926,-0.016333620995283127,1.3414634466171265,0.005859375,0.0,-0.03970609928635721,0.001970750156055982,-0.5,0.0,-0.8660852444694729,0.0,0.002811357031992291,0.002811356416244396,0.0632936127745964,0.06329489184742396,0.0,0.0012731282791746729
1626109848.498426,-0.3713826718945076,-0.000147430028233603,5.13,3.71,0.1331610381603241,0.01628122664988041,1.7073171138763428,-0.05712890625,0.1279296875,-0.06077190012319557,0.0018564812351480487,-0.5,0.0,-0.8658990503928234,0.0,0.002811435840991821,0.002811434490608682,0.06330294330761813,0.06330408303557573,0.0,0.0011738187936259355
1626109848.558426,-0.3678568547738294,-0.0001806470634312754,5.12,3.72,0.3431980311870575,0.016656097024679184,0.3048780560493469,0.13134765625,0.22802734375,-0.10671740739293659,0.0006687319060437928,-0.5,0.0,-0.8670611005619939,0.0,0.0028115461867254986,0.002811542697872955,0.06328566611971777,0.06328667359670034,0.0,0.001001564107848284
1626109848.6184258,-0.3432035731240221,-0.00020986005431210736,5.13,3.72,0.4406130313873291,-3.246361666242592e-05,1.9512195587158203,0.02001953125,-0.01904296875,-0.10998721957257093,0.0006337282412427275,-0.5,0.0,-0.8669104683550137,0.0,0.0028114748575437595,0.0028114694412455163,0.06329585162797638,0.06329690681758944,0.0,0.0009221979973193625
1626109848.678426,-0.32136610636583407,-0.00023554106091250838,5.14,3.72,0.4406130313873291,-3.246361666242592e-05,1.9512195587158203,0.02001953125,-0.01904296875,-0.11884426908270854,0.0006487354254122601,-0.5,0.0,-0.8670362538442189,0.0,0.0028114383788876763,0.0028114336455718064,0.06328533227782412,0.06328647181967365,0.0,0.0008489927496833131
1626109848.738426,0.10315888861450843,-0.0002600346491576181,5.14,3.72,0.5092222094535828,-0.03374583274126053,1.6463414430618286,-0.35498046875,0.1865234375,-0.11884426908270854,0.0006487354254122601,-0.5,0.0,-0.8670362538442189,0.0,0.0028114383788876763,0.0028114336455718064,0.06328533227782412,0.06328647181967365,0.0,0.0008489927496833131
1626109848.798426,0.10016848572240537,-0.00028187978857222804,5.14,3.72,0.5392479300498962,0.016602708026766777,1.6463414430618286,-0.35498046875,0.1865234375,-0.12949381189976053,0.005691541571020874,-0.5,0.0,-0.86683938298404,0.0,0.0040800943787349065,0.004080080666809419,0.0648997763873406,0.0649010531232627,0.0,0.0007670104596173145
1626109848.880426,0.13240675644201833,-0.0003042187757935294,5.16,3.74,0.511785089969635,0.017746001482009888,1.5243902206420898,0.15478515625,0.08154296875,-0.1641242017461318,0.012740156979264818,-0.5,0.0,-0.8660883090204068,0.0,0.0031512664496478144,0.003151255805012858,0.06372502240859923,0.06372667068880508,0.0,0.000621031158764952
1626109848.918426,0.12058792030749774,-0.0003271637451438512,5.17,3.73,0.5001435875892639,0.0007814508280716836,0.792682945728302,-0.4853515625,-0.05322265625,-0.17968130610082908,0.012023402629310776,-0.5,0.0,-0.8660303677388562,0.0,0.0028114803743118305,0.002811470227628349,0.06329429715505143,0.06329622530431202,0.0,0.0005610722222468994
1626109848.984426,0.16511487815282574,-0.0003473728789796954,5.17,3.73,0.5001435875892639,0.0007814508280716836,0.792682945728302,-0.4853515625,-0.05322265625,-0.19168498215260518,0.011237921958079333,-0.5,0.0,-0.8663620178603454,0.0,0.0028114162231918337,0.002811404323683651,0.06330749440832592,0.06330978041967084,0.0,0.0005144522174202289
1626109849.038426,0.15514559680170242,-0.0003632328909557886,5.17,3.73,0.49791741371154785,-0.0003026519843842834,2.317073106765747,-0.18115234375,-0.06005859375,-0.1916849709151218,0.004930506179972283,0.0,0.0,-0.8665588316912899,0.0,0.002811416222267073,0.0028114043230267425,0.06330749440831905,0.06330978035193718,0.0,0.0005155678994950405
1626109849.0984259,0.1712960268159739,-0.00037297371872477156,5.2,3.74,0.5014261603355408,-0.03294184431433678,2.317073106765747,-0.18115234375,-0.06005859375,-0.1989099719816851,0.0051702713406622455,0.0,0.0,-0.8663218366893933,0.0,0.003611259350050211,0.0036112366540294377,0.06434253232387717,0.06434526031657423,0.0,0.0004610713392095264
1626109849.172426,0.20173423782387478,-0.000383070699741154,5.2,3.74,0.3529221713542938,-0.00027600445901043713,3.4146342277526855,0.05615234375,-0.0595703125,-0.2170250938169147,0.0010257268503872318,0.0,0.0,-0.8667620966295474,0.0,0.0028115209862596435,0.002811504297606753,0.0633227334591586,0.06332641549165649,0.0,0.0003735888021022389
1626109849.218426,0.19122300141245396,-0.0003931221755991052,5.25,3.74,0.2579425573348999,-0.0005282519850879908,-1.1585365533828735,-0.01953125,-0.47216796875,-0.21875155256122547,0.0009607403631371207,0.0,0.0,-0.866777480850784,0.0,0.0028114664465677635,0.0028114487549963,0.06333329581513775,0.06333754103676495,0.0,0.00032688066790665423
1626109849.278426,0.19150016301714326,-0.0004011204643108811,5.28,3.75,0.14541757106781006,0.016709627583622932,-1.1585365533828735,-0.01953125,-0.47216796875,-0.21516420302283298,-0.004911349848378863,0.0,0.0,-0.867170140508187,0.0,0.0028114723276588763,0.0028114557765615052,0.06332240856576005,0.06332717967711561,0.0,0.0002811335971718807
1626109849.3384259,0.2115992662874185,-0.00040980705201348335,5.28,3.75,0.14541757106781006,0.016709627583622932,-1.1585365533828735,0.00732421875,-0.1513671875,-0.21516420302283298,-0.004911349848378863,0.0,0.0,-0.867170140508187,0.0,0.0028114723276588763,0.0028114557765615052,0.06332240856576005,0.06332717967711561,0.0,0.0002811335971718807
1626109849.398426,0.20612420148830124,-0.00041783926741774326,5.32,3.74,0.06273380666971207,-0.0007923941593617201,-1.1585365533828735,0.00732421875,-0.1513671875,-0.20005297896696453,-0.0020518436262729183,0.0,0.0,-0.867278537770027,0.0,0.004317763277781577,0.004317719627222755,0.06522859012069866,0.06523397756049305,0.0,0.00022638043991673833
1626109849.484426,0.20539320436763042,-0.0004247444546178265,5.34,3.74,1.809011820341766e-07,-1.682801780589216e-06,0.792682945728302,-0.0009765625,-0.0390625,-0.16993014507856402,0.000945891721911414,0.0,0.0,-0.8664347794500787,0.0,0.00338046953414692,0.0033804488957173843,0.0640403478123787,0.06404650291244478,0.0,0.00015536520993483715
1626109849.518426,0.20102736882428826,-0.00043028439414868614,5.34,3.74,1.809011820341766e-07,-1.682801780589216e-06,2.012195110321045,-0.00244140625,0.03271484375,-0.1519076347239965,0.0009046157557442939,0.0,0.0,-0.8662654903406855,0.0,0.0028115912834124016,0.0028115783702322723,0.06330897918815936,0.06331533515292162,0.0,0.00012444743044595223
1626109849.5884259,0.1716466068340824,-0.00043427328843629546,5.36,3.74,1.809011820341766e-07,-1.682801780589216e-06,2.012195110321045,-0.00244140625,0.03271484375,-0.13322389657692602,0.002455124859695396,0.0,0.0,-0.8661298855656161,0.0,0.0028116188511546174,0.0028116088187223626,0.06328997158668445,0.06329640348347676,0.0,8.92333525511772e-05
1626109849.638426,0.1734285424088114,-0.0004375282271710994,5.36,3.74,1.809011820341766e-07,-1.682801780589216e-06,1.3414634466171265,-0.0009765625,0.00048828125,-0.13322389657692602,0.002455124859695396,0.0,0.0,-0.8661298855656161,0.0,0.0028116188511546174,0.0028116088187223626,0.06328997158668445,0.06329640348347676,0.0,8.92333525511772e-05
1626109849.698426,0.1503004984466132,-0.00044067073284689915,5.37,3.75,1.809011820341766e-07,-1.682801780589216e-06,1.3414634466171265,-0.0009765625,0.00048828125,-0.11406906463539769,0.002014101631355152,0.0,0.0,-0.8660616319923097,0.0,0.0038448750734686224,0.0038448603114448667,0.06460619866533407,0.06461265733120956,0.0,4.7788111141451894e-05
1626109849.7764258,0.11615993047008814,-0.0004431469527919989,5.4,3.76,1.7872164903565135e-07,-1.6625269836367806e-06,1.402438998222351,-0.01171875,0.00537109375,-0.08759114747169582,0.0020141682253978803,0.0,0.0,-0.8660749513980026,0.0,0.002924257134234586,0.002924250931454815,0.06343569832802753,0.06344168205549486,0.0,-6.731208194606977e-06
1626109849.818426,0.11707807746236279,-0.0004449598740674076,5.4,3.76,1.809011820341766e-07,-1.682801780589216e-06,1.3414634466171265,0.00244140625,0.0185546875,-0.07615737122046763,0.00189181253382657,0.0,0.0,-0.8660797436432985,0.0,0.0028114104082513094,0.002811405598727483,0.06330159901773716,0.06330726586647153,0.0,-3.353863422057344e-05
1626109849.880426,0.08776668894808426,-0.0004460144954514625,5.4,3.75,1.809011820341766e-07,-1.682801780589216e-06,1.3414634466171265,0.00244140625,0.0185546875,-0.06608447426007259,0.0019525126827833806,0.0,0.0,-0.8660766811269249,0.0,0.002811374671603908,0.0028113708246340127,0.06329655623176762,0.06330186408102978,0.0,-5.931792087631406e-05
1626109849.938426,0.0899284996028073,-0.00044628624790406387,5.4,3.75,1.809011820341766e-07,-1.682801780589216e-06,1.402438998222351,-0.00732421875,0.00048828125,-0.06608447426007259,0.0019525126827833806,0.0,0.0,-0.8660766811269249,0.0,0.002811374671603908,0.0028113708246340127,0.06329655623176762,0.06330186408102978,0.0,-5.931792087631406e-05
1626109849.998426,0.07469319709979276,-0.000445856594636461,5.4,3.76,1.809011820341766e-07,-1.682801780589216e-06,1.402438998222351,-0.00732421875,0.00048828125,-0.05729604317101924,0.0018293182519254865,0.0,0.0,-0.8660804887236732,0.0,0.0028114495047138425,0.002811446054055818,0.06330528000438992,0.06331020980366917,0.0,-8.313126528259296e-05
1626109850.058426,0.0678585348437722,-0.0004447251642730813,5.41,3.76,1.809011820341766e-07,-1.682801780589216e-06,1.3414634466171265,0.001953125,0.0126953125,-0.043101047567084175,0.0019610148093446847,0.0,0.0,-0.8660766987661493,0.0,0.0028115478199742684,0.0028115452933101023,0.06328694870088106,0.06329110931168899,0.0,-0.00012549807287173264
1626109850.1184258,0.05711813108884038,-0.00044297756817596873,5.41,3.76,1.809011820341766e-07,-1.682801780589216e-06,1.4634146690368652,-0.00244140625,0.00830078125,-0.03736051575004864,0.0018381711392487536,0.0,0.0,-0.8660802528588466,0.0,0.002811467821852938,0.0028114656185754135,0.06329669783510108,0.06330049212205496,0.0,-0.00014415278369202817
1626109850.178426,0.04836280974684684,-0.00044064672898463605,5.41,3.77,1.8313454575036303e-07,-1.7035771406881395e-06,1.4634146690368652,-0.00244140625,0.00830078125,-0.03240802359213536,0.001993061342033783,0.0,0.0,-0.8660746814834982,0.0,0.0028114313448664554,0.0028114294812242617,0.06328579990066464,0.06328924262213328,0.0,-0.0001613014271656871
1626109850.238426,0.04426140595348099,-0.0004377555720483456,5.41,3.77,1.8313454575036303e-07,-1.7035771406881395e-06,1.3414634466171265,0.001953125,0.00537109375,-0.03240802359213536,0.001993061342033783,0.0,0.0,-0.8660746814834982,0.0,0.0028114313448664554,0.0028114294812242617,0.06328579990066464,0.06328924262213328,0.0,-0.0001613014271656871
1626109850.298426,0.036947156924966626,-0.0004343852785327269,5.41,3.75,1.7872164903565135e-07,-1.6625269836367806e-06,1.3414634466171265,0.001953125,0.00537109375,-0.027472210258293942,0.002013745651890513,0.0,0.0,-0.8660294621610919,0.0,0.0040800619356427025,0.004080058604204744,0.06489982156045716,0.06490296703331962,0.0,-0.0001864585817564802
1626109850.380426,0.028090196694993325,-0.00043054923012304254,5.41,3.75,1.809011820341766e-07,-1.682801780589216e-06,1.3414634466171265,0.00341796875,0.0087890625,-0.02099269604599603,0.0019682401603248675,0.0,0.0,-0.8660637054187398,0.0,0.0031512352029015936,0.0031512336312087743,0.06372462894557718,0.06372715485170645,0.0,-0.0002067908068650918
1626109850.418426,0.028229035108336478,-0.00042629244935490186,5.41,3.75,1.809011820341766e-07,-1.682801780589216e-06,1.402438998222351,0.00146484375,0.00927734375,-0.01832574897777426,0.0018570762019835595,0.0,0.0,-0.8660790898427032,0.0,0.002806974713366412,0.0028069735997161014,0.06328841209914787,0.06329067029313638,0.0,-0.00021592876182492698
1626109850.484426,0.021119413450730255,-0.0004216543893332217,5.41,3.75,1.8313454575036303e-07,-1.7035771406881395e-06,1.402438998222351,0.00146484375,0.00927734375,-0.015886021444819404,0.0017387079132684747,0.0,0.0,-0.8660839067363768,0.0,0.0028104084701540775,0.0028104074928673563,0.0633055532846867,0.06330757152783063,0.0,-0.00022654116629053706
1626109850.538063,0.021559227435013435,-0.00041668941536477055,5.41,3.75,1.8313454575036303e-07,-1.7035771406881395e-06,1.3414634466171265,-0.0048828125,0.0068359375,-0.01588602137777688,0.002006762183968561,0.0,0.0,-0.8660755436159154,0.0,0.0028104084701243916,0.0028104074928452555,0.06330555328468657,0.06330757151482237,0.0,-0.0002265619455719927
1626109850.598063,0.01881894312213372,-0.00041138631111998017,5.41,3.75,1.809011820341766e-07,-1.682801780589216e-06,1.3414634466171265,-0.0048828125,0.0068359375,-0.013577515805636804,0.0020261154921937144,0.0,0.0,-0.8660455600441825,0.0,0.0036109730369697935,0.003610971671531702,0.0643411096839013,0.06434291786258767,0.0,-0.00024176570711724482
1626109850.672063,0.013770299213868818,-0.00040580464037796724,5.41,3.75,1.809011820341766e-07,-1.682801780589216e-06,1.3414634466171265,0.00146484375,0.0087890625,-0.010352220119460158,0.002224773242606114,0.0,0.0,-0.8660679615295777,0.0,0.0028114541106717085,0.0028114534493260557,0.06332129133773644,0.06332270960380208,0.0,-0.0002520472883386169
1626109850.718063,0.013948606768845774,-0.0003999605919741443,5.41,3.75,1.7872164903565135e-07,-1.6625269836367806e-06,1.3414634466171265,-0.00732421875,0.013671875,-0.008972937983268455,0.0020853036028786447,0.0,0.0,-0.8660699364825357,0.0,0.002811402023156765,0.0028114014434842964,0.0633318211040958,0.06333307634010048,0.0,-0.00025863911155201395
1626109850.778063,0.011571658892179254,-0.0003938947784256413,5.41,3.75,1.8313454575036303e-07,-1.7035771406881395e-06,1.3414634466171265,-0.00732421875,0.013671875,-0.007782517826977708,0.0021186850224023624,0.0,0.0,-0.8660679008774205,0.0,0.0028114125334751912,0.0028114120273196918,0.06332092967121805,0.06332203767997985,0.0,-0.0002643373057322623
1626109850.838063,0.010631132810306282,-0.0003876218803132433,5.41,3.75,1.809011820341766e-07,-1.682801780589216e-06,1.3414634466171265,0.00048828125,0.01171875,-0.007782517826977708,0.0021186850224023624,0.0,0.0,-0.8660679008774205,0.0,0.0028114125334751912,0.0028114120273196918,0.06332092967121805,0.06332203767997985,0.0,-0.0002643373057322623
1626109850.8980632,0.008837858887750837,-0.0003811746622522351,5.42,3.75,1.809011820341766e-07,-1.682801780589216e-06,1.3414634466171265,0.00048828125,0.01171875,-0.006569937204856927,0.0022795381642669553,0.0,0.0,-0.8660046713126842,0.0,0.004317605263736171,0.004317604273634061,0.06522705000463729,0.06522803205518993,0.0,-0.00027899618619858053
1626109850.9840631,0.006745315726858976,-0.00037457280545478354,5.43,3.75,1.8313454575036303e-07,-1.7035771406881395e-06,1.2804877758026123,-0.005859375,0.0087890625,-0.005020475685931126,0.002151313112488463,0.0,0.0,-0.8660442386067669,0.0,0.0033803934670891436,0.0033803929879021037,0.06403892105647399,0.06403967486111622,0.0,-0.0002804141860500792
1626109851.018063,0.006751681724421231,-0.00036783608091384064,5.43,3.75,1.809011820341766e-07,-1.682801780589216e-06,1.3414634466171265,-0.0068359375,0.0068359375,-0.004397427342255579,0.0020375667891352187,0.0,0.0,-0.8660697566374783,0.0,0.0028115403326329095,0.0028115400369034954,0.06330761621640164,0.06330827483505136,0.0,-0.00027955199973589374
1626109851.088063,0.005071187575270662,-0.00036098590224027243,5.44,3.76,1.809011820341766e-07,-1.682801780589216e-06,1.3414634466171265,-0.0068359375,0.0068359375,-0.003814364540631,0.00204236225247798,0.0,0.0,-0.8660697424493768,0.0,0.002811583184364296,0.0028115829272413575,0.0632886612037326,0.06328923624821639,0.0,-0.00028164374653416564
1626109851.138063,0.00515709685132383,-0.000354039710780139,5.44,3.76,1.809011820341766e-07,-1.682801780589216e-06,1.3414634466171265,-0.0009765625,0.01220703125,-0.003814364540631,0.00204236225247798,0.0,0.0,-0.8660697424493768,0.0,0.002811583184364296,0.0028115829272413575,0.0632886612037326,0.06328923624821639,0.0,-0.00028164374653416564
1626109851.1980631,0.004366373062481864,-0.0003470173858312856,5.44,3.76,1.809011820341766e-07,-1.682801780589216e-06,1.3414634466171265,-0.0009765625,0.01220703125,-0.0032465279203645787,0.002214330903593236,0.0,0.0,-0.8660264983742741,0.0,0.0038448185684593563,0.0038448181686537,0.06460489842995135,0.0646054003671458,0.0,-0.00028931595880780773
1626109851.276063,0.003306036385045903,-0.0003399342531216372,5.44,3.77,1.8313454575036303e-07,-1.7035771406881395e-06,1.2804877758026123,0.00048828125,0.013671875,-0.0024804421179157447,0.0021000710954395905,0.0,0.0,-0.8660646359847204,0.0,0.0029242325191789946,0.0029242323391454055,0.06343453746578769,0.06343491577549598,0.0,-0.0002853147745098992
1626109851.318063,0.003335593447908739,-0.0003328044992402291,5.44,3.77,1.809011820341766e-07,-1.682801780589216e-06,1.402438998222351,0.0078125,0.00732421875,-0.002154566990388485,0.0019723259956777204,0.0,0.0,-0.8660731850946716,0.0,0.002811390970375285,0.0028113908260500604,0.06330049647727691,0.06330082420568266,0.0,-0.0002846856766985338
1626109851.380063,0.0024854132542137153,-0.000325643459821028,5.43,3.77,1.809011820341766e-07,-1.682801780589216e-06,1.402438998222351,0.0078125,0.00732421875,-0.0018686023064829664,0.0021452570964293864,0.0,0.0,-0.8660678082827813,0.0,0.0028113587244556586,0.002811358600121147,0.06329550923581172,0.06329579253311833,0.0,-0.0002842291033369378
1626109851.4380631,0.002547399323676523,-0.00031846334365133705,5.43,3.77,1.809011820341766e-07,-1.682801780589216e-06,1.3414634466171265,-0.00634765625,0.0087890625,-0.0018686023064829664,0.0021452570964293864,0.0,0.0,-0.8660678082827813,0.0,0.0028113587244556586,0.002811358600121147,0.06329550923581172,0.06329579253311833,0.0,-0.0002842291033369378
1626109851.498063,0.0021135073524225314,-0.0003112782492000997,5.44,3.76,1.809011820341766e-07,-1.682801780589216e-06,1.3414634466171265,-0.00634765625,0.0087890625,-0.0015710415997774259,0.0022071853122332657,0.0,0.0,-0.8659995373815425,0.0,0.004557021924498816,0.004557021665784646,0.06550180515072553,0.06550204926064218,0.0,-0.0002925102733744085
1626109851.588063,0.0016196306214883466,-0.0003040989457604517,5.44,3.76,1.8313454575036303e-07,-1.7035771406881395e-06,1.3414634466171265,0.00634765625,0.01318359375,-0.0012180684245482907,0.0019799240039503033,0.0,0.0,-0.8660720472531838,0.0,0.0028115367882915066,0.0028115367102500995,0.06328606650655473,0.0632862477401884,0.0,-0.0002805002170263191
1626109851.618063,0.0016146829511720152,-0.0002969365851967183,5.44,3.76,1.809011820341766e-07,-1.682801780589216e-06,1.3414634466171265,0.00634765625,0.01318359375,-0.0010557854574186267,0.0018557997187434235,0.0,0.0,-0.8660777541583989,-1.0,0.0028114580288119413,0.0028114579623048043,0.06329586867102853,0.06329602450966033,0.0,-0.0002785922976349757
1626109851.6780632,0.0013669286054643853,-0.00028980186877168053,5.43,3.76,0.0036319789942353964,-0.033785849809646606,1.3414634466171265,0.00634765625,0.01318359375,-0.0009158137633139407,-0.03939732878649953,0.0,0.0,-0.8667374260115329,-1.0,0.002811422857626315,0.0028114228008616557,0.06328502294046597,0.06328515683819735,0.0,-0.00027633472810957544
1626109851.738063,0.0012508794785501423,-0.0002827038283047316,5.43,3.76,0.004087505396455526,-0.3676973581314087,1.2195122241973877,-0.00732421875,0.02001953125,-0.0009158137633139407,-0.03939732878649953,0.0,0.0,-0.8667374260115329,-1.0,0.002811422857626315,0.0028114228008616557,0.06328502294046597,0.06328515683819735,0.0,-0.00027633472810957544
1626109851.798063,0.001044103312331068,-0.0002756464966631035,5.44,3.77,0.0063019488006830215,-0.37951532006263733,1.2195122241973877,-0.00732421875,0.02001953125,-0.0008206412350381385,-0.10242555881976788,0.0,0.0,-0.8712724314161004,-1.0,0.004080045895862191,0.004080045799356835,0.06489907610812545,0.0648991909840193,0.0,-0.0002795652023676144
1626109851.880063,0.0008391055849388658,-0.0002685789109442462,5.44,3.77,0.007398630958050489,-0.6604012846946716,43.23170852661133,-0.0517578125,-0.044921875,-0.00018671777154885923,-0.19082666934363945,0.0,0.0,-0.9019514439242096,-1.0,0.0031512094687838376,0.0031512094190989607,0.06372417580297589,0.06372426115297354,0.0,-0.00027729986670736506
1626109851.9180632,0.0009000056904207025,-0.0002622625524788385,5.44,3.77,0.009735386818647385,-0.8574317097663879,43.23170852661133,-0.0517578125,-0.044921875,0.0003023605562400588,-0.23110775351553334,0.0,0.0,-0.9299894590859078,-1.0,0.0028114157599766643,0.0028114157208180474,0.06329409417753484,0.06329416800624936,0.0,-0.00028544830659708647
1626109851.9840631,0.00018784094669038571,-0.00025762576124345807,5.44,3.79,0.011024807579815388,-0.9557250142097473,56.585365295410156,-0.07666015625,0.001953125,0.0008583400634129155,-0.21958194248232202,0.0,0.0,-0.9703018273969177,-1.0,0.0028114222918723614,0.002811422249682652,0.06328184815341217,0.06328191226963342,0.0,-0.0003046998210916712
1626109852.038063,0.0003628168583116576,-0.0002554492183827753,5.44,3.79,0.012799992226064205,-0.9510566592216492,56.585365295410156,-0.07666015625,0.001953125,0.0008583400634129155,-0.21958194248232202,0.0,0.0,-0.9703018273969177,-1.0,0.0028114222918723614,0.002811422249682652,0.06328184815341217,0.06328191226963342,0.0,-0.0003046998210916712
1626109852.098063,-8.277086163393873e-05,-0.00025677975468195273,5.43,3.79,0.00694114388898015,-0.9563472867012024,56.76829528808594,0.00244140625,0.0908203125,0.001361602025669188,-0.2069500483840231,0.0,0.0,-1.0224301831644411,-1.0,0.0036110655060621008,0.0036110654230302763,0.06431175188684957,0.06431180810835921,0.0,-0.00033446521699387186
1626109852.172063,-0.0013809350318292116,-0.00026055179395586425,5.44,3.81,0.009003004059195518,-0.9611867070198059,56.76829528808594,0.00244140625,0.0908203125,0.0022378236541416236,-0.1957684201972908,0.0,0.0,-1.1279519054842353,0.0,0.002811098747016072,0.0028110986869582496,0.06331055771129382,0.06331060165080911,0.0,-0.00038607469784730265
1626109852.218063,-0.0011403391788191598,-0.0002671713322778699,5.44,3.81,0.009071012027561665,-0.7906894087791443,55.853660583496094,-0.01611328125,0.1025390625,0.002642189137085526,-0.19066535414065636,0.0,0.0,-1.1836696533759508,0.0,0.002810924010606444,0.002810923944409071,0.06333640906168539,0.06333644863644962,0.0,-0.0004208491635852349
1626109852.278063,-0.0016255835279510213,-0.00026881614895667356,5.46,3.82,0.0018538949079811573,-0.16536223888397217,55.853660583496094,-0.01611328125,0.1025390625,0.0030010258989496366,-0.18664509599199453,0.0,0.0,-1.237714370599856,0.0,0.002810856936467477,0.002810856865025726,0.06334253251904755,0.06334256862536027,0.0,-0.00045019979187260186
1626109852.338063,-0.00203955930599003,-0.0002754339128353304,5.46,3.82,0.0009191620629280806,0.08359341323375702,9.939024925231934,-0.06494140625,0.00048828125,0.0030010258989496366,-0.18664509599199453,0.0,0.0,-1.237714370599856,0.0,0.002810856936467477,0.002810856865025726,0.06334253251904755,0.06334256862536027,0.0,-0.00045019979187260186
1626109852.3980632,-0.0023419680833736464,-0.000279926022873832,5.47,3.83,4.268951215635752e-06,3.971117257606238e-05,1.1585365533828735,-0.0244140625,0.00830078125,0.003120272921406606,-0.17560703061596908,0.0,0.0,-1.2790507495367083,0.0,0.004316343180598009,0.004316342983039281,0.06526584586212256,0.06526588029725812,0.0,-0.0004685350577571146
1626109852.4840631,-0.0032035657030086303,-0.0002776692043125912,5.49,3.83,4.268951215635752e-06,3.971117257606238e-05,1.3414634466171265,0.0068359375,0.00146484375,0.002850998740974433,-0.13605427361770805,0.0,0.0,-1.2944346367205544,0.0,0.002811392179402228,0.002811392099282338,0.0633514132661705,0.06335144318826552,0.0,-0.00043170146106129146
1626109852.518063,-0.003078774322043415,-0.0002671362794210707,5.49,3.83,4.268951215635752e-06,3.971117257606238e-05,1.3414634466171265,0.0068359375,0.00146484375,0.0025371474885694076,-0.1267857769563303,0.0,0.0,-1.2967166814946696,0.0,0.0028114997309790202,0.0028114996546078352,0.06335757731672924,0.06335760619840917,0.0,-0.00041577457255342415
1626109852.578063,-0.003004086187060315,-0.00025478207877844476,5.49,3.85,4.268951215635752e-06,3.971117257606238e-05,1.2804877758026123,0.00048828125,0.0048828125,0.0022323709418739656,-0.04472422006089893,0.0,0.0,-1.2943515359154956,0.0,0.0028115477677880087,0.0028115476981795985,0.06334091125335721,0.063340939416529,0.0,-0.000401074893471861
1626109852.638063,-0.0029035158168696736,-0.00024330798885518394,5.49,3.85,4.2175179260084406e-06,3.9232723793247715e-05,1.2804877758026123,0.00048828125,0.0048828125,0.0022323709418739656,-0.04472422006089893,0.0,0.0,-1.2943515359154956,0.0,0.0028115477677880087,0.0028115476981795985,0.06334091125335721,0.063340939416529,0.0,-0.000401074893471861
1626109852.6980631,-0.0025077358250519617,-0.0002325482404741117,5.5,3.86,4.268951215635752e-06,3.971117257606238e-05,1.3414634466171265,-0.00390625,0.0068359375,0.001914856405414797,-0.021836998572596425,0.0,0.0,-1.2942036696145278,0.0,0.003844926205717654,0.003844926083766243,0.06465644501513519,0.0646564737475865,0.0,-0.0003911902935900049
1626109852.776063,-0.0019499409616256797,-0.00022229111310727098,5.5,3.88,0.0035774894058704376,0.033278971910476685,-4.390244007110596,-0.0126953125,-0.099609375,0.025806850748842494,-0.010878955866375883,0.5,0.0,-1.2933219725363656,0.0,0.002924335018562354,0.0029243349410780404,0.06347861634089315,0.06347864384036271,0.0,-0.0003610181247812287
1626109852.818063,-0.0019647138455109216,-0.0002124324069131929,5.5,3.88,0.053297799080610275,0.20111218094825745,-4.390244007110596,-0.0126953125,-0.099609375,0.046242312336496956,-0.010186891153585466,0.5,0.0,-1.2927995823919551,0.0,0.0028114893929071464,0.002811487591855851,0.06334078816665285,0.06334082009123697,0.0,-0.00034852799441107844
1626109852.880063,0.3799624935252048,-0.00020281114004959535,5.5,3.99,0.13072986900806427,0.048727888613939285,1.3414634466171265,0.09326171875,-0.443359375,0.06619547218135055,-0.00371172557029244,0.5,0.0,-1.2873556989409785,0.0,0.0028114566873663734,0.0028114517891913837,0.06333219327104142,0.06333224558856579,0.0,-0.0003363611566511564
1626109852.9380631,0.3787779664871907,-0.00019359040657209315,5.5,3.99,0.23193593323230743,-0.06569085270166397,1.3414634466171265,0.09326171875,-0.443359375,0.06619547218135055,-0.00371172557029244,0.5,0.0,-1.2873556989409785,0.0,0.0028114566873663734,0.0028114517891913837,0.06333219327104142,0.06333224558856579,0.0,-0.0003363611566511564
1626109852.998063,0.3490451910510224,-0.00018454197395547368,5.5,3.96,0.3432420492172241,-0.0168492142111063,2.5,-0.3720703125,-0.06787109375,0.09056238549186574,0.01500884364765435,0.5,0.0,-1.280990689006566,0.0,0.003378366377256286,0.0033783501187969155,0.06406255805994907,0.06406266688074227,0.0,-0.000296753607940255
1626109853.067905,0.33019163522774087,-0.00016532578166500997,5.47,3.93,0.4394604563713074,-0.03242269530892372,6.219512462615967,0.03662109375,-0.0908203125,0.11339087551917147,0.002511254965820702,0.5,0.0,-1.2813868106806034,0.0,0.002811450696689169,0.002811426193938022,0.06332971678014612,0.06333009181750525,0.0,-0.00021292704415913334
1626109853.117905,0.32897794851161066,-0.00014220661008120309,5.47,3.93,0.506131649017334,-0.03297143056988716,6.219512462615967,0.03662109375,-0.0908203125,0.12182808420484788,0.0023025739751115575,0.5,0.0,-1.2824341713788887,0.0,0.0028114916024467185,0.002811466684028781,0.06333724226510018,0.06333781872628229,0.0,-0.0002127946909162369
1626109853.177905,-0.10146973519651496,-0.00013082593793723105,5.41,3.9,0.5353224277496338,-0.016357406973838806,6.95121955871582,-0.26220703125,0.21142578125,0.13525340156000265,-0.0030668337729428444,0.5,0.0,-1.2840044283602927,0.0,0.0028115057966153307,0.002811480994622885,0.06332270922631689,0.06332349520020289,0.0,-0.00024151379930847507
1626109853.237905,-0.10778480921398856,-0.0001302731106302798,5.41,3.9,0.5355973839759827,-0.04935646802186966,6.95121955871582,-0.26220703125,0.21142578125,0.13525340156000265,-0.0030668337729428444,0.5,0.0,-1.2840044283602927,0.0,0.0028115057966153307,0.002811480994622885,0.06332270922631689,0.06332349520020289,0.0,-0.00024151379930847507
1626109853.297905,-0.10962807134308088,-0.00014065814015615287,5.38,3.87,0.5136085748672485,-0.0007835431024432182,-1.6463414430618286,-0.28076171875,-0.017578125,0.1673007223009862,-0.010681610286253031,0.5,0.0,-1.2878560036044784,0.0,0.0028116315967202246,0.002811591215104351,0.0633106770312697,0.06331199083445474,0.0,-0.000348237032179671
1626109853.417905,-0.13848683615130966,-0.00017840090709722147,5.38,3.82,0.49779945611953735,-0.0007950446452014148,0.9146341681480408,0.3134765625,0.0859375,0.1937818851198327,-0.005113326452046039,0.5,0.0,-1.2893791551124625,0.0,0.0028115719996839534,0.002811510145226407,0.06331589335531106,0.0633179776716047,0.0,-0.00042195347415296453
1626109853.477905,-0.15833496992051171,-0.00019596575596584386,5.38,3.82,0.4997650980949402,0.01688775047659874,0.9146341681480408,0.3134765625,0.0859375,0.1879684369933079,0.00795980537769212,0.5,0.0,-1.288841041722738,0.0,0.004557477600625947,0.004557278125571207,0.06551358649571612,0.0655157152454802,0.0,-0.00042606667123145655
1626109853.537905,-0.1721187732515159,-0.00020111899750529952,5.37,3.79,0.49207839369773865,-0.016648834571242332,4.817073345184326,-0.46484375,0.064453125,0.2040877098478968,0.007720607007189091,0.5,0.0,-1.2886194201030254,0.0,0.002811629130739843,0.002811562093359625,0.0632984103012211,0.06330094717294339,0.0,-0.0004185306635828803
1626109853.567905,-0.19378188407950098,-0.000200491117407075,5.37,3.79,0.4996710419654846,0.01661529764533043,4.817073345184326,-0.46484375,0.064453125,0.20950684393657829,0.00870005892872171,0.5,0.0,-1.2882688473118302,0.0,0.0036117098272445804,0.0036115740675232363,0.06432154489374099,0.06432464821928875,0.0,-0.0004051455141686994
1626109853.597905,-0.17998893324339452,-0.00019722483497826545,5.34,3.76,0.5001190900802612,-0.016582077369093895,0.0,0.31298828125,-0.41064453125,0.21990931281763498,0.008280816588716608,0.5,0.0,-1.2883068599279557,0.0,0.002811649434378576,0.0028115625301111994,0.06329453871385705,0.06329818418074563,0.0,-0.00039178236066409367
1626109853.671905,-0.21248157195243295,-0.0001886402890431757,5.34,3.76,0.5016866326332092,-0.0007950446452014148,0.0,0.31298828125,-0.41064453125,0.22628761306716855,0.003329657967738601,0.5,0.0,-1.2886108772682647,0.0,0.0028115955903958104,0.0028115023087594464,0.0632988996860115,0.06330315705147815,0.0,-0.0003854451506074278
1626109853.717905,-0.20214959419606474,-0.0001821230303749073,5.3,3.72,0.505632221698761,-0.0002520074194762856,2.195122003555298,0.00537109375,-0.09130859375,0.23175392271055142,0.003105650704885828,0.5,0.0,-1.2889181392608497,0.0,0.002811495358375136,0.0028113969112649575,0.0633113434306241,0.06331623263371966,0.0,-0.0003851731895022602
1626109853.777905,-0.1999685685858839,-0.0001772032714590881,5.3,3.72,0.505632221698761,-0.0002520074194762856,2.195122003555298,0.00537109375,-0.09130859375,0.23687606900218355,0.0009878887935577845,0.5,0.0,-1.2894893910763217,0.0,0.002811479276446124,0.002811384751461786,0.06330278166026979,0.06330825278887096,0.0,-0.00038931153765544256
1626109853.837905,-0.21928036020004538,-0.00017450804062641456,5.28,3.68,0.48787906765937805,0.016607822850346565,-1.097561001777649,0.20751953125,0.01904296875,0.23687606900218355,0.0009878887935577845,0.5,0.0,-1.2894893910763217,0.0,0.002811479276446124,0.002811384751461786,0.06330278166026979,0.06330825278887096,0.0,-0.00038931153765544256
1626109853.8979049,-0.21509977141878672,-0.00017336444065220043,5.28,3.68,0.409491628408432,0.016647839918732643,-1.097561001777649,0.20751953125,0.01904296875,0.2424258573047008,0.0017445025977508098,0.5,0.0,-1.2910468986752817,0.0,0.002811636360277248,0.00281152571443745,0.06329512852008565,0.06330179170823516,0.0,-0.00041571621536582
1626109853.983905,-0.2409551724339463,-0.00017640692087531935,5.2,3.64,0.2155405730009079,0.000561706954613328,0.5487805008888245,0.12841796875,0.021484375,0.2308912316315316,0.009416290470628554,0.5,0.0,-1.2905739476252578,0.0,0.002811639683899819,0.002811520739681691,0.06329204379855946,0.0632998506989731,0.0,-0.000395263107058984
1626109854.017905,-0.22892544070353907,-0.0001772745071423522,5.2,3.64,0.11946440488100052,0.016855496913194656,1.8292683362960815,-0.03515625,0.1357421875,0.21696313281697954,0.009705597770312303,0.5,0.0,-1.2901446010961657,0.0,0.0028115861785325087,0.0028114825958821033,0.06327906237618001,0.06328732524512637,0.0,-0.00038011880715007
1626109854.077905,-0.22608859663573683,-0.00017113038764254832,5.2,3.64,0.11946440488100052,0.016855496913194656,1.8292683362960815,-0.03515625,0.1357421875,0.21696313281697954,0.009705597770312303,0.5,0.0,-1.2901446010961657,0.0,0.0028115861785325087,0.0028114825958821033,0.06327906237618001,0.06328732524512637,0.0,-0.00038011880715007
1626109854.137905,-0.2373670282934275,-0.00016302573798171517,5.16,3.65,0.03485206887125969,-0.00029035296756774187,1.7073171138763428,-0.0146484375,0.12841796875,0.19473169885538688,0.006077066325297202,0.5,0.0,-1.289952427860794,0.0,0.0038449017868003076,0.0038447206203018618,0.06459850844000785,0.06460724305430945,0.0,-0.00036600351612764903
1626109854.197905,-0.22314314305542335,-0.00015389055544315561,5.14,3.64,5.072490239399485e-06,4.718595664598979e-05,1.7073171138763428,-0.0146484375,0.12841796875,0.17708867864373645,0.005815273920683922,0.5,0.0,-1.2898491535358487,0.0,0.0028116098082648132,0.0028115215912525955,0.0632772554817748,0.06328610807805693,0.0,-0.0003463029768844087
1626109854.275905,-0.19830109900110912,-0.00014408454635450146,5.11,3.63,5.072490239399485e-06,4.718595664598979e-05,-0.3048780560493469,-0.01611328125,-0.00390625,0.13629902661740956,0.00897370514323988,0.5,0.0,-1.2895836432408847,0.0,0.0028114429188184605,0.002811381540860013,0.0632977024366817,0.06330653512310469,0.0,-0.0003082865462328035
1626109854.317905,-0.19820581983878421,-0.0001342453375351239,5.11,3.63,5.072490239399485e-06,4.718595664598979e-05,1.6463414430618286,-0.0087890625,0.00439453125,0.11875401256765994,0.005356802833696941,0.5,0.0,-1.2896757580673945,0.0,0.0028113999893716254,0.002811353023759092,0.06329325118263125,0.06330182510838142,0.0,-0.00029108127356892945
1626109854.379905,-0.15590688917862197,-0.0001238584796631717,5.11,3.63,5.13511349709006e-06,4.776849891641177e-05,1.6463414430618286,-0.0087890625,0.00439453125,0.11875401256765994,0.005356802833696941,0.5,0.0,-1.2896757580673945,0.0,0.0028113999893716254,0.002811353023759092,0.06329325118263125,0.06330182510838142,0.0,-0.00029108127356892945
1626109854.437905,-0.1593742114039373,-0.00011388050331653297,5.11,3.63,5.13511349709006e-06,4.776849891641177e-05,1.1585365533828735,-0.0126953125,0.0185546875,0.1021582221500671,0.00371414087985724,0.5,0.0,-1.2897020304670903,0.0,0.003380267396954066,0.0033802111019318832,0.06402951559811171,0.06403777099783087,0.0,-0.0002756492699950656
1626109854.497905,-0.1335016816753313,-0.00010469795222488148,5.1,3.62,5.072490239399485e-06,4.718595664598979e-05,1.1585365533828735,-0.0126953125,0.0185546875,0.08960535306616509,0.003518027795271161,0.5,0.0,-1.289769446467562,0.0,0.0028114972443671633,0.0028114621324078983,0.06330139067518259,0.06330915083234967,0.0,-0.0002592442649821193
1626109854.567905,-0.10319012348068471,-9.609372737845852e-05,5.09,3.6,5.011375833419152e-06,4.661744969780557e-05,1.2195122241973877,-0.005859375,0.005859375,0.06741676649321861,0.0026947925027012132,0.5,0.0,-1.2898195069329326,0.0,0.0028114416384944245,0.002811416714424286,0.06331169521640154,0.06331843584588556,0.0,-0.00023171834704497566
1626109854.617905,-0.1048935127141927,-8.810181978272216e-05,5.09,3.6,5.072490239399485e-06,4.718595664598979e-05,1.402438998222351,-0.0087890625,0.00732421875,0.05849130201254259,0.0024842001805251944,0.5,0.0,-1.289832063042256,0.0,0.002811442827287125,0.0028114223079355833,0.06329980434778827,0.0633060095498716,0.0,-0.0002191232367239429
1626109854.677905,-0.08715906249419766,-8.076915415137859e-05,5.08,3.59,5.13511349709006e-06,4.776849891641177e-05,1.402438998222351,-0.0087890625,0.00732421875,0.05849130201254259,0.0024842001805251944,0.5,0.0,-1.289832063042256,0.0,0.002811442827287125,0.0028114223079355833,0.06329980434778827,0.0633060095498716,0.0,-0.0002191232367239429
1626109854.737905,-0.07983113986915943,-7.396101040713631e-05,5.08,3.59,5.13511349709006e-06,4.776849891641177e-05,1.3414634466171265,-0.00244140625,0.01318359375,0.049587945710335916,0.0023430685628587408,0.0,0.0,-1.2897889400316802,-1.0,0.004080131633943902,0.004080094962674385,0.06491215598663946,0.06491790023248449,0.0,-0.00020859832650830571
1626109854.797905,-0.06666648912180693,-6.760425250147101e-05,5.07,3.59,5.072490239399485e-06,4.718595664598979e-05,1.3414634466171265,-0.00244140625,0.01318359375,0.04398341196632946,-0.03190984983017872,0.0,0.0,-1.2904151543389806,-1.0,0.002811555330212509,0.0028115395132109477,0.06329234142052392,0.06329751274161004,0.0,-0.00019766110874748502
1626109854.879905,-0.050703424784973444,-6.166017174615913e-05,5.06,3.59,0.002054066862910986,-0.35000666975975037,1.3414634466171265,-0.00830078125,0.01611328125,0.03345161527535975,-0.10173015651856694,0.0,0.0,-1.3099313627440796,-1.0,0.0028114773395814877,0.002811465180863378,0.06330132505938744,0.06330555989352768,0.0,-0.0001606218767762125
1626109854.917905,-0.05095283267628052,-5.670598208994273e-05,5.06,3.59,0.009993832558393478,-0.5271773338317871,20.609756469726562,0.01171875,0.0048828125,0.029384346373500264,-0.1505508879628189,0.0,0.0,-1.3327704837088514,-1.0,0.002811519153595892,0.0028115085159513865,0.06328583238480395,0.06328964120845622,0.0,-0.00013558545608128447
1626109854.983905,-0.038225497858559616,-4.957295302931168e-05,5.06,3.58,0.010816304013133049,-0.776262104511261,20.609756469726562,0.01171875,0.0048828125,0.029384346373500264,-0.1505508879628189,0.0,0.0,-1.3327704837088514,-1.0,0.002811519153595892,0.0028115085159513865,0.06328583238480395,0.06328964120845622,0.0,-0.00013558545608128447
1626109855.037905,-0.03891239296240272,-4.115874598016913e-05,5.06,3.58,0.010816304013133049,-0.776262104511261,43.719512939453125,0.06298828125,-0.0869140625,0.025670830095361866,-0.19555284175683516,0.0,0.0,-1.3704759048422286,-1.0,0.0036113819085232053,0.003611366417862142,0.06431138559023697,0.06431482085378076,0.0,-0.00011664568468120793
1626109855.097905,-0.033214718051829,-3.133734048408952e-05,5.06,3.58,0.008417409844696522,-0.8957809209823608,43.719512939453125,0.06298828125,-0.0869140625,0.023248030803347586,-0.189955950890765,0.0,0.0,-1.4123933717258068,-1.0,0.00281143127124531,0.002811422560888019,0.0632886667473281,0.06329172137427128,0.0,-9.813662391524667e-05
1626109855.171905,-0.026035323028693567,-2.3996482256514255e-05,5.08,3.62,0.01138251181691885,-1.001459002494812,55.60975646972656,0.0322265625,-0.013671875,0.018791060931169293,-0.17874188671407606,0.0,0.0,-1.520279946829114,-1.0,0.002811067552339838,0.0028110603816602557,0.06332139922414924,0.06332382361748891,0.0,-8.030736478410951e-05
1626109855.217905,-0.026126835250134237,-1.732157797040433e-05,5.08,3.62,0.01267294306308031,-0.9385854601860046,56.95122146606445,0.01708984375,-0.00341796875,0.017010158103573914,-0.17543863499579762,0.0,0.0,-1.5768222814795794,-1.0,0.0028109358372456657,0.002810929439211012,0.06332537696500688,0.06332752783524138,0.0,-7.983035187422789e-05
1626109855.277905,-0.022257686708932394,-1.3686725136651806e-05,5.08,3.63,0.014911280944943428,-0.9557316899299622,56.95122146606445,0.01708984375,-0.00341796875,0.017010158103573914,-0.17543863499579762,0.0,0.0,-1.5768222814795794,-1.0,0.0028109358372456657,0.002810929439211012,0.06332537696500688,0.06332752783524138,0.0,-7.983035187422789e-05
1626109855.337905,-0.021190438838042804,-1.1280146228139874e-05,5.08,3.63,0.014911280944943428,-0.9557316899299622,55.853660583496094,-0.07861328125,-0.0693359375,0.015150166579762562,-0.16848757890238694,0.0,0.0,-1.6375851221596458,-1.0,0.004316047313952609,0.004316034320376716,0.06524809488677569,0.06525001157688731,0.0,-9.74061035264574e-05
1626109855.3979049,-0.018246957146988985,-1.1335934307540598e-05,5.09,3.6,0.006698732264339924,-0.9236476421356201,55.853660583496094,-0.07861328125,-0.0693359375,0.014278219565392467,-0.1717153794575088,0.0,0.0,-1.6894832385086664,-1.0,0.0028109827655032464,0.0028109776845331785,0.06334555329215079,0.06334723409829814,0.0,-0.00010748661703686089
1626109855.483905,-0.015554586176364257,-1.777211332409235e-05,5.1,3.6,0.011416883207857609,-1.0017493963241577,56.03658676147461,0.02734375,0.03515625,0.012244983887484934,-0.17163844666082279,0.0,0.0,-1.8026343118754609,-1.0,0.0028102562391328447,0.0028102524195048207,0.06336759625519275,0.06336889768906921,0.0,-0.00014158264294282023
1626109855.517905,-0.015281088770517851,-2.1537287607624556e-05,5.1,3.6,0.011106648482382298,-0.9773421883583069,57.74390411376953,0.04052734375,-0.015625,0.011434159983354345,-0.17303934590119063,0.0,0.0,-1.8600472550734921,-1.0,0.0028108126824515703,0.0028108094845300125,0.06336726878606362,0.06336840907136149,0.0,-0.00016036228956317866
1626109855.577622,-0.013649504172808939,-2.7648776399496326e-05,5.12,3.61,0.010888257995247841,-0.9557898640632629,57.74390411376953,0.04052734375,-0.015625,0.011434159983354345,-0.17303934590119063,0.0,0.0,-1.8600472550734921,-1.0,0.0028108126824515703,0.0028108094845300125,0.06336726878606362,0.06336840907136149,0.0,-0.00016036228956317866
1626109855.6376219,-0.01327550742188598,-3.338170719423739e-05,5.12,3.61,0.0070424494333565235,-0.9560075998306274,57.68292999267578,-0.03076171875,0.0146484375,0.01045856501457752,-0.17163441383974817,0.0,0.0,-1.9201820375210317,-1.0,0.0038435749356657205,0.003843570274086841,0.06469869006458141,0.06469968818788106,0.0,-0.00017488567815876496
1626109855.697622,-0.011860555223339614,-3.9633682142620355e-05,5.1,3.6,0.0070424494333565235,-0.9560075998306274,57.68292999267578,-0.03076171875,0.0146484375,0.00989998329064783,-0.17736354332569235,0.0,0.0,-1.9744949532598985,-1.0,0.0028110454104154437,0.0028110432307411537,0.06338643781471541,0.0633873066533978,0.0,-0.0001793518818244479
1626109855.775622,-0.010650268651797122,-4.390631330827376e-05,5.06,3.59,0.010771328583359718,-0.956877589225769,54.26829528808594,-0.08642578125,-0.04541015625,0.008734646122004525,-0.18360877821465565,0.0,0.0,-2.0893153442163483,-1.0,0.0028109629344695852,0.0028109615841710777,0.06342387453120632,0.06342452944464282,0.0,-0.00021288541705051956
1626109855.817622,-0.010502370876900969,-4.493690150368697e-05,5.06,3.59,0.003410642733797431,-0.4787311255931854,54.26829528808594,-0.08642578125,-0.04541015625,0.008167005285783131,-0.1846748597178471,0.0,0.0,-2.1376803575964707,-1.0,0.0028110340336166143,0.0028110330266632134,0.06342027220920395,0.06342083799417866,0.0,-0.00021715213184162637
1626109855.879622,-0.009299972042618124,-5.095355397997358e-05,5.04,3.59,0.0028776691760867834,-0.08171085268259048,54.26829528808594,-0.08642578125,-0.04541015625,0.008167005285783131,-0.1846748597178471,0.0,0.0,-2.1376803575964707,-1.0,0.0028110340336166143,0.0028110330266632134,0.06342027220920395,0.06342083799417866,0.0,-0.00021715213184162637
1626109855.937622,-0.009284465458637266,-5.518082647932351e-05,5.04,3.59,0.0004442340286914259,0.033694177865982056,4.02439022064209,0.0009765625,-0.01416015625,0.007407485714865915,-0.13237649023624196,0.0,0.0,-2.1638985845111867,-1.0,0.003379855738523242,0.003379854737905661,0.06415984090431853,0.06416032748984528,0.0,-0.00020689975969358633
1626109855.997622,-0.008526366921115748,-5.5526584158287155e-05,5.02,3.6,0.0004442340286914259,0.033694177865982056,4.02439022064209,0.0009765625,-0.01416015625,0.006625449545064757,-0.1261273699123665,0.0,0.0,-2.171508548393486,-1.0,0.002811365717893128,0.0028113651667919706,0.0634296165500491,0.06343003486417627,0.0,-0.00018997763147577767
1626109856.067622,-0.007482345055968557,-5.074576023314025e-05,4.99,3.6,3.2796529012557585e-06,-3.0508397685480304e-05,0.8536585569381714,0.021484375,-0.0107421875,0.004970065277899832,-0.08883919791299556,0.0,0.0,-2.1743981460950024,-1.0,0.0028115923287032264,0.002811591987088694,0.06342540187922505,0.06342570659803312,0.0,-0.00016597928124303162
1626109856.117622,-0.0075586980705018205,-4.36468583912239e-05,4.99,3.6,3.2796529012557585e-06,-3.0508397685480304e-05,1.5243902206420898,0.01025390625,0.00341796875,0.004292646226410724,-0.024904189630645425,0.0,0.0,-2.172060092934231,-1.0,0.002811639941444062,0.0028116396626254553,0.06340381123641702,0.06340406962617828,0.0,-0.00015489068537744867
1626109856.177622,-0.006433751305889613,-3.7794117503761405e-05,4.98,3.59,3.2796529012557585e-06,-3.0508397685480304e-05,1.5243902206420898,0.01025390625,0.00341796875,0.004292646226410724,-0.024904189630645425,0.0,0.0,-2.172060092934231,-1.0,0.002811639941444062,0.0028116396626254553,0.06340381123641702,0.06340406962617828,0.0,-0.00015489068537744867
1626109856.237622,-0.005947582248185615,-3.310343835729281e-05,4.98,3.59,3.3201426958839875e-06,-3.088504672632553e-05,1.3414634466171265,-0.013671875,0.00927734375,0.003630016306010404,-0.01122010851924834,0.0,0.0,-2.1718447428887098,-1.0,0.004080569060709763,0.0040805686013105835,0.06500773816218848,0.06500795426080604,0.0,-0.0001465080011321132
1626109856.297622,-0.004921832923197251,-2.8633082965878988e-05,4.97,3.6,3.3201426958839875e-06,-3.088504672632553e-05,1.2804877758026123,-0.01123046875,0.005859375,0.003215086443218409,-0.01074317445079297,0.0,0.0,-2.171463825474164,-1.0,0.002811755364558905,0.0028117551690929644,0.06337741007014484,0.06337759357318876,0.0,-0.00013753582995372065
1626109856.379622,-0.003711673023022915,-2.4682369113478798e-05,4.96,3.6,3.2796529012557585e-06,-3.0508397685480304e-05,1.2804877758026123,-0.01123046875,0.005859375,0.0024136105598157724,-0.004532205959134988,0.0,0.0,-2.171120314324021,-1.0,0.0028117199670162395,0.002811719830477479,0.06335314173718713,0.06335326983981845,0.0,-0.00012130419716118137
1626109856.417622,-0.003731608393966031,-2.0955692465890518e-05,4.96,3.6,3.2796529012557585e-06,-3.0508397685480304e-05,1.2804877758026123,0.0087890625,0.015625,0.002093110413855092,-0.0020313101928987848,0.0,0.0,-2.170998680530603,-1.0,0.0028116629806035904,0.002811662867409227,0.06333266478789194,0.0633327711588606,0.0,-0.00011362817975581687
1626109856.477622,-0.003154573667894556,-1.739182777599083e-05,4.96,3.58,3.240138994442532e-06,-3.014082722074818e-05,1.2804877758026123,0.0087890625,0.015625,0.002093110413855092,-0.0020313101928987848,0.0,0.0,-2.170998680530603,-1.0,0.0028116629806035904,0.002811662867409227,0.06333266478789194,0.0633327711588606,0.0,-0.00011362817975581687
1626109856.537622,-0.0028613994433929024,-1.4031339501864313e-05,4.96,3.58,3.3201426958839875e-06,-3.088504672632553e-05,1.2804877758026123,0.00537109375,0.015625,0.0017884841667100556,-0.00042820498076140835,0.0,0.0,-2.170930045516972,-1.0,0.0036117046378172776,0.0036117044903495902,0.06435322825501846,0.06435331540473546,0.0,-0.00010641098509687615
1626109856.597622,-0.0024064314879326037,-1.0860862642220519e-05,4.96,3.58,3.3201426958839875e-06,-3.088504672632553e-05,1.2804877758026123,0.00537109375,0.015625,0.0015729305940591456,-0.041756502704780527,0.0,0.0,-2.1717261072980696,-1.0,0.0028116308337435515,0.002811630756117094,0.06332306976715953,0.06332314245343554,0.0,-9.938075765989073e-05
1626109856.671622,-0.0018138784331350453,-7.88734654789929e-06,4.95,3.59,0.000310494244331494,-0.03327163681387901,1.2195122241973877,-0.001953125,0.01123046875,0.0012391608752889717,-0.10921271013297819,0.0,0.0,-2.1752062016928124,-1.0,0.0028114500531507946,0.002811450000865269,0.06333478840105726,0.06333483784977953,0.0,-8.664807787663942e-05
1626109856.717622,-0.001837415649275101,-5.137878591508862e-06,4.95,3.59,0.008534296415746212,-0.4007647931575775,9.146341323852539,0.0205078125,0.068359375,0.0013407302050109464,-0.15693528699433937,0.0,0.0,-2.186462264435053,-1.0,0.002811431130158197,0.0028114310877405376,0.06332399402475426,0.06332403494044558,0.0,-8.242831011844232e-05
1626109856.777622,-0.0015241143455181436,-2.581396292231059e-06,5.01,3.57,0.010088438168168068,-0.708905041217804,41.09756088256836,0.0361328125,0.04931640625,0.0013407302050109464,-0.15693528699433937,0.0,0.0,-2.186462264435053,0.0,0.002811431130158197,0.0028114310877405376,0.06332399402475426,0.06332403494044558,0.0,-8.242831011844232e-05
1626109856.837622,-0.0013789857777654292,-2.872766454927433e-07,5.01,3.57,0.008490156382322311,-0.5773249864578247,41.09756088256836,0.0361328125,0.04931640625,0.0016164349067114652,-0.1480695944503077,0.0,0.0,-2.213298331427683,0.0,0.0031512384936639203,0.003151238452360922,0.0637645173438032,0.06376455133977127,0.0,-8.698850621080445e-05
1626109856.8976219,-0.0011228829492514298,1.2339659303053565e-06,5.0,3.59,0.008490156382322311,-0.5773249864578247,41.09756088256836,0.0361328125,0.04931640625,0.0019693265946277585,-0.14273962370698953,0.0,0.0,-2.246650897016774,0.0,0.002811462744068051,0.002811462718035372,0.06333080210922408,0.06333083087067995,0.0,-9.92254752210084e-05
1626109856.963622,-0.0016261921277154953,-5.265771497269196e-07,4.99,3.6,0.0003333718341309577,0.03202775493264198,13.109756469726562,-0.06201171875,-0.033203125,0.002056706126561793,-0.12775454658655805,0.0,0.0,-2.2760572818419975,0.0,0.002811386749242598,0.0028113867361818957,0.06333620170824794,0.06333622340546918,0.0,-9.575675464529239e-05
1626109857.017622,-0.0014546553083350869,-5.042755893038842e-06,4.99,3.6,2.7253804546489846e-06,2.5352375814691186e-05,0.9146341681480408,-0.025390625,0.01708984375,0.0018809931304371542,-0.10602992105366085,0.0,0.0,-2.2785389274034906,0.0,0.0028114443623103533,0.002811444352658897,0.0633216759303058,0.06332169553228847,0.0,-8.836783070271337e-05
1626109857.077622,-0.0017659538126078389,-6.038766517388883e-06,4.99,3.59,2.69214410764107e-06,2.5043200366781093e-05,0.9146341681480408,-0.025390625,0.01708984375,0.0018809931304371542,-0.10602992105366085,0.0,0.0,-2.2785389274034906,0.0,0.0028114443623103533,0.002811444352658897,0.0633216759303058,0.06332169553228847,0.0,-8.836783070271337e-05
1626109857.1376219,-0.0021204968552405116,-3.5077345232474855e-06,4.99,3.59,2.69214410764107e-06,2.5043200366781093e-05,1.3414634466171265,-0.00830078125,-0.00390625,0.001646046310420088,-0.041505917031148476,0.0,0.0,-2.278278604832604,0.0,0.003844797680569852,0.0038447976664500593,0.06463788505185258,0.06463790377317798,0.0,-8.164864074674532e-05
1626109857.197622,-0.0020066351823617833,-7.2783675407189e-07,4.99,3.58,2.69214410764107e-06,2.5043200366781093e-05,1.3414634466171265,-0.00830078125,-0.00390625,0.0014756412564659474,-0.039578037589067826,0.0,0.0,-2.2776187206985137,0.0,0.0028115771543229797,0.0028115771473421025,0.06331245729337479,0.06331247481954859,0.0,-7.57837494615442e-05
1626109857.275622,-0.001676204861787623,1.7245605289277172e-06,5.04,3.59,2.69214410764107e-06,2.5043200366781093e-05,1.3414634466171265,-0.00146484375,0.01513671875,0.0011225577868335139,-0.018620037727119496,0.0,0.0,-2.2768131360381614,0.0,0.002811445766950793,0.0028114457605410374,0.06332494205884884,0.06332495950134333,0.0,-6.501550869841399e-05
1626109857.317622,-0.0016832046138725225,3.8612719383162536e-06,5.04,3.59,2.7253804546489846e-06,2.5352375814691186e-05,1.3414634466171265,-0.00146484375,0.01513671875,0.0009760665281211948,-0.009139619129387032,0.0,0.0,-2.276393260703202,0.0,0.0028115135415001605,0.002811513535064012,0.06330986314086254,0.06330988103670189,0.0,-5.999345019796974e-05
1626109857.379622,-0.0012893168749782673,5.821709676639034e-06,5.08,3.59,2.69214410764107e-06,2.5043200366781093e-05,1.3414634466171265,-0.0048828125,0.0078125,0.0009760665281211948,-0.009139619129387032,0.0,0.0,-2.276393260703202,0.0,0.0028115135415001605,0.002811513535064012,0.06330986314086254,0.06330988103670189,0.0,-5.999345019796974e-05
1626109857.437622,-0.0013196767575307958,7.628363508488e-06,5.08,3.59,2.6597085707180668e-06,2.4741475499467924e-05,1.3414634466171265,-0.0048828125,0.0078125,0.0008386143601144822,-0.004464216922919668,0.0,0.0,-2.276220497611847,0.0,0.0033803733124704097,0.003380373302731806,0.06404064281684275,0.06404066195279966,0.0,-5.51158255813118e-05
1626109857.497622,-0.0011227661319943476,9.312259270826378e-06,5.04,3.6,2.7253804546489846e-06,2.5352375814691186e-05,1.3414634466171265,-0.0048828125,0.0078125,0.0007350645765874995,-0.004224531009930363,0.0,0.0,-2.2760854680037133,0.0,0.0028115345458335174,0.002811534538948501,0.06330949889044232,0.0633095183434041,0.0,-5.068389974620474e-05
1626109857.567622,-0.00084708446759602,1.0869712182412348e-05,5.03,3.6,0.0070905559696257114,0.0659586563706398,-3.9634146690368652,-0.013671875,-0.037109375,0.045477887296877746,-0.0015505389640854022,0.5,0.0,-2.2751799206866297,0.0,0.0028114417432601106,0.0028114414295161445,0.06331674691559656,0.06331677307419264,0.0,-4.286652037658665e-05
1626109857.617622,-0.0008612443591990172,1.2306715952624774e-05,5.03,3.6,0.06603693217039108,0.21412687003612518,-3.9634146690368652,-0.013671875,-0.037109375,0.06584135031107378,0.003057754374380773,0.5,0.0,-2.2687360204706306,0.0,0.0028114409077829084,0.002811440011660676,0.0633039377107983,0.06330398478122165,0.0,-3.6059942929158536e-05
1626109857.677622,0.38197260110918596,1.3665185611104298e-05,5.02,3.61,0.14285793900489807,0.016304686665534973,-3.9634146690368652,-0.013671875,-0.037109375,0.06584135031107378,0.003057754374380773,0.5,0.0,-2.2687360204706306,0.0,0.0028114409077829084,0.002811440011660676,0.0633039377107983,0.06330398478122165,0.0,-3.6059942929158536e-05
1626109857.737622,0.3801885144270728,1.4858245289341016e-05,5.02,3.61,0.2555530369281769,-0.06597021222114563,-1.1585365533828735,0.05908203125,-0.12451171875,0.0948670317841175,0.011802510230279246,0.5,0.0,-2.2637929687905003,0.0,0.004080128420974015,0.0040801224439660985,0.06491556148705233,0.06491566787772007,0.0,-8.156319061681936e-07
1626109857.797622,0.35211966348773105,1.7186234477131533e-05,5.01,3.61,0.363648384809494,-0.04968184605240822,0.6097561120986938,0.03759765625,-0.23095703125,0.09635130060678793,0.011304042981432233,0.5,0.0,-2.2644271914063627,0.0,0.002811556419718317,0.002811552804270188,0.06329526465089574,0.06329546986013275,0.0,3.2359518236367976e-05
1626109857.879622,0.329912862200101,2.942869342217531e-05,5.02,3.6,0.46088218688964844,-0.015758540481328964,3.5365853309631348,-0.1279296875,0.2421875,0.11261189014449469,0.004222682220992244,0.5,0.0,-2.268249103003007,0.0,0.0028115559853942934,0.00281155179578324,0.06328655931572062,0.06328705917012208,0.0,-2.4353505878311387e-05
1626109857.917622,-0.09300004779953086,4.048562219901803e-05,5.02,3.6,0.5095804333686829,-0.01640630140900612,3.5365853309631348,-0.1279296875,0.2421875,0.12823464118334338,0.008783970106574744,0.5,0.0,-2.2694324550559917,0.0,0.0028160028227784007,0.0028159983091861716,0.06327795040682219,0.06327862407286015,0.0,-8.604806726411836e-05
1626109857.977622,-0.08790857500250181,3.443239841146112e-05,5.08,3.58,0.5410663485527039,0.0003124457143712789,3.1097562313079834,0.06005859375,-0.1767578125,0.12823464118334338,0.008783970106574744,0.5,0.0,-2.2694324550559917,0.0,0.0028160028227784007,0.0028159983091861716,0.06327795040682219,0.06327862407286015,0.0,-8.604806726411836e-05
1626109858.037622,-0.09526455770748593,1.5108243609369586e-05,5.08,3.58,0.5196295976638794,-0.015285906381905079,3.1097562313079834,0.06005859375,-0.1767578125,0.14364479804263658,0.0012539171053787854,0.5,0.0,-2.2700093114900506,0.0,0.0036125045040523896,0.00361249343982871,0.06430015366922329,0.06430105211046536,0.0,-0.00013693026167473533
1626109858.097987,-0.10100530351430108,-9.540928087705964e-06,5.13,3.55,0.5201870203018188,-0.033969853073358536,-0.12195122241973877,-0.10400390625,0.07666015625,0.16252163346917134,0.0011725094260081532,0.5,0.0,-2.2704590601256824,0.0,0.002811734070333023,0.0028117263096377114,0.0632753509864338,0.06327649965646127,0.0,-0.00016848832567503152
1626109858.171987,-0.1456844043391384,-2.941324278476644e-05,5.16,3.52,0.49170979857444763,0.016082370653748512,-3.2317073345184326,-0.044921875,-0.33349609375,0.1897397745300663,-0.005129349521740645,0.5,0.0,-2.272064349776591,0.0,0.0028113938799375834,0.002811382503936145,0.06329682257085557,0.06329869610143088,0.0,-0.00021649294284247454
1626109858.217987,-0.134286309484869,-4.194835835079729e-05,5.16,3.52,0.4900248944759369,-0.0007963423850014806,-3.2317073345184326,-0.044921875,-0.33349609375,0.20007485164436883,-0.00829112399022699,0.5,0.0,-2.2725733965511044,0.0,0.0028113828846253316,0.002811371068999985,0.06329023156195797,0.06329253223717542,0.0,-0.00022566440290936753
1626109858.277987,-0.14407769345064803,-5.2379534859310014e-05,5.09,3.48,0.5123296976089478,-0.032017648220062256,1.585365891456604,-0.2998046875,-0.14404296875,0.20007485164436883,-0.00829112399022699,0.5,0.0,-2.2725733965511044,0.0,0.0028113828846253316,0.002811371068999985,0.06329023156195797,0.06329253223717542,0.0,-0.00022566440290936753
1626109858.337987,-0.16882418538794966,-5.9928024741648284e-05,5.09,3.48,0.49970436096191406,0.01632256992161274,1.585365891456604,-0.2998046875,-0.14404296875,0.20777817041321855,-0.010988191327254057,0.5,0.0,-2.2736433650074837,0.0,0.0031512120021178905,0.0031511936643271936,0.06373433844584131,0.06373715491979165,0.0,-0.0002324422582702746
1626109858.397987,-0.1738486397919618,-6.293668611769189e-05,5.06,3.44,0.4978801906108856,-0.015095914714038372,4.146341323852539,-0.359375,-0.2744140625,0.21698991013490312,-0.01038588654626296,0.5,0.0,-2.273997161065283,0.0,0.002811486458252335,0.002811470318293664,0.06330305709516229,0.06330641705279375,0.0,-0.00023581643996900897
1626109858.4639869,-0.20903232381766812,-6.480684112282715e-05,5.04,3.39,0.507095456123352,0.0501219742000103,0.0,0.42724609375,-0.3125,0.23008875366759002,0.006670585320626954,0.5,0.0,-2.272732447952768,0.0,0.0028115005881866008,0.0028114818803089436,0.06330870523301443,0.06331324592795291,0.0,-0.00020905753806046398
1626109858.517987,-0.2002670132942715,-6.556284314196307e-05,5.04,3.39,0.49756842851638794,0.033818554133176804,0.0,0.42724609375,-0.3125,0.23552993608879386,0.004400128916960683,0.5,0.0,-2.2721311603034633,0.0,0.002811522609842541,0.002811504224671032,0.06329511847701944,0.06330024681650087,0.0,-0.00019271068725695226
1626109858.577987,-0.19879613112720473,-6.012228773513283e-05,5.05,3.35,0.48277217149734497,-0.050727080553770065,-1.6463414430618286,0.00048828125,0.07763671875,0.23552993608879386,0.004400128916960683,0.0,0.0,-2.2721311603034633,0.0,0.002811522609842541,0.002811504224671032,0.06329511847701944,0.06330024681650087,0.0,-0.00019271068725695226
1626109858.637987,-0.2169171652339929,-5.462943182215328e-05,5.05,3.35,0.39552944898605347,0.03321465477347374,-1.6463414430618286,0.00048828125,0.07763671875,0.23504385671756173,0.0006585668295230368,0.0,0.0,-2.2725100516882355,0.0,0.0038448857718242383,0.003844844430914073,0.06461306371180903,0.064618895206182,0.0,-0.00018104957486857412
1626109858.697987,-0.21527922106050368,-4.818020748142133e-05,5.07,3.3,0.3036644756793976,0.016362586989998817,-3.4146342277526855,-0.16943359375,0.2451171875,0.24032308456947246,0.0006040448144521534,0.0,0.0,-2.273053704326834,0.0,0.0028116151468671824,0.0028115931811565137,0.0632901027232974,0.06329648445642874,0.0,-0.0001838873821259674
1626109858.775987,-0.23935217079163126,-4.328101629857115e-05,5.09,3.25,0.20175543427467346,0.01576242595911026,2.682926893234253,-0.00048828125,0.060546875,0.227265622067816,-0.005226318071542683,0.0,0.0,-2.2743540601908894,0.0,0.0028114793286542423,0.002811457443817438,0.06330727184503171,0.06331487241221234,0.0,-0.0001879714773903553
1626109858.817987,-0.22948338556654166,-4.4238791941880494e-05,5.09,3.25,0.10403461754322052,-0.01578686200082302,2.682926893234253,-0.00048828125,0.060546875,0.21279277770816826,0.00048428902192407643,0.0,0.0,-2.2745362095657735,0.0,0.0028115431829089134,0.0028115234129019494,0.063294320863011,0.0633023738563177,0.0,-0.0001771956374817832
1626109858.879987,-0.2365290539816895,-4.535814656303236e-05,5.11,3.22,0.01939055137336254,0.0005649284576065838,1.097561001777649,0.0009765625,0.14501953125,0.21279277770816826,0.00048428902192407643,0.0,0.0,-2.2745362095657735,0.0,0.0028115431829089134,0.0028115234129019494,0.063294320863011,0.0633023738563177,0.0,-0.0001771956374817832
1626109858.937987,-0.2342531815025571,-4.418190268455573e-05,5.11,3.22,1.4088781199461664e-06,-1.3105843208904844e-05,1.097561001777649,0.0009765625,0.14501953125,0.19175216353495805,-0.0007723661999698749,0.0,0.0,-2.2749086752621683,0.0,0.0033804130121239486,0.0033803873553879156,0.06402701238548035,0.06403548297546359,0.0,-0.0001650158739406571
1626109858.997987,-0.22173753835373014,-3.9333859001421546e-05,5.12,3.2,1.4088781199461664e-06,-1.3105843208904844e-05,1.402438998222351,-0.00927734375,-0.025390625,0.17242573800797972,-0.0007307204437437114,0.0,0.0,-2.2748792518519956,1.0,0.0028115605023354712,0.0028115442071337746,0.06329762841632088,0.06330626125225547,0.0,-0.00015390005412636623
1626109859.067987,-0.19368905267750297,-3.372767110304666e-05,5.14,3.18,0.0033637273591011763,0.300607293844223,-8.90243911743164,-0.01513671875,-0.30322265625,0.13231128490458552,0.09116718023998187,0.0,0.0,-2.2672476992536725,1.0,0.0028114551621356903,0.0028114441023146678,0.06330782864694218,0.06331639528260435,0.0,-0.0001349753548073464
