time,la_x,la_y,uwb_x,uwb_y,vel_linear_x,vel_angular_z,mpu_ang_vel_z,mpu_linear_acc_x,mpu_linear_acc_y,odom_linear_x,odom_angular_z,cmd_linear_x,cmd_linear_y,odom_yaw,cmd_angular_z,var_x,var_y,var_xvel,var_yvel,vel_linear_y,odom_linear_y
1626110011.9454699,-2.492059000652122e-06,-1.2747319206913952e-07,0.0,0.0,,,1.402438998222351,-0.001953125,0.00244140625,2.6314487720151723e-06,0.001080654369889514,,,-2.5414981290114405,,0.0028114814402029004,0.00281148144020295,0.06329349449457518,0.06329349449458546,,-3.5241638429344294e-06
1626110012.01947,-2.6310654479285216e-06,-1.2344371942334563e-07,5.69,4.96,4.268782959115924e-06,3.970960824517533e-05,1.402438998222351,-0.001953125,0.00244140625,2.594229899893294e-06,0.0009762024963930387,,,-2.5414870869608337,,0.0036115100412358846,0.003611510041235968,0.06431829748887578,0.06431829748888541,0.0,-3.5225807943501418e-06
1626110012.06547,-2.536342328882017e-06,-1.1949827341880143e-07,5.69,4.96,4.3214840843575075e-06,4.019985135528259e-05,1.3414634466171265,-0.00390625,0.00146484375,2.6325553003408614e-06,0.000928487490820498,,,-2.5415031993897865,,0.0028115323906126154,0.0028115323906126657,0.06329216747529014,0.06329216747529884,0.0,-3.5175134718105543e-06
1626110012.12547,-2.4219995778313526e-06,-1.1563682683562427e-07,5.69,4.96,4.3214840843575075e-06,4.019985135528259e-05,1.3414634466171265,-0.00390625,0.00146484375,2.6323095620593244e-06,0.0008226531568137402,,,-2.541507541380556,,0.0028114808476027518,0.002811480847602801,0.0632970275349557,0.06329702753496369,0.0,-3.5141800359870944e-06
1626110012.1854699,-2.574446164906949e-06,-1.1185928405345652e-07,5.69,4.96,4.217351943225367e-06,3.923118129023351e-05,1.3414634466171265,-0.00048828125,0.00146484375,2.631620518560262e-06,0.0007708264014828131,,,-2.541510590882257,,0.0028113800808683533,0.002811380080868402,0.06330979812855514,0.06330979812856244,0.0,-3.5108523468030455e-06
1626110012.2454698,-2.5158633170997616e-06,-1.0816607895242203e-07,5.68,4.96,4.268782959115924e-06,3.970960824517533e-05,1.3414634466171265,-0.00048828125,0.00146484375,2.6335814830670286e-06,0.0008293468684285556,,,-2.5415088378669752,,0.0028114579464770416,0.0028114579464770884,0.06329933301075089,0.06329933301075756,0.0,-3.5075008260560047e-06
1626110012.3114698,-2.6328761832852226e-06,-1.0455654127717186e-07,5.73,4.98,4.268782959115924e-06,3.970960824517533e-05,1.4634146690368652,-0.00537109375,0.001953125,2.6170812778193236e-06,0.001014437907637691,,,-2.5414978370010792,,0.003151216030757051,0.0031512160307571096,0.0637412319469866,0.06374123194699272,0.0,-3.504801435941829e-06
1626110012.36547,-2.559243038652947e-06,-1.0103190054332621e-07,5.73,4.98,4.3214840843575075e-06,4.019985135528259e-05,1.402438998222351,-0.005859375,0.001953125,2.6331168522325613e-06,0.000956980705601717,,,-2.5415039682158365,,0.0028114622615505124,0.0028114622615505597,0.06330856569226577,0.0633085656922713,0.0,-3.5008580536644584e-06
1626110012.4254699,-2.443624976155839e-06,-9.759129715514876e-08,5.77,4.97,4.268782959115924e-06,3.970960824517533e-05,1.402438998222351,-0.005859375,0.001953125,2.633933240268087e-06,0.001076711187475197,,,-2.5414995744862985,,0.002811423376280024,0.0028114233762800683,0.06330413566599397,0.06330413566599899,0.0,-3.497551262734489e-06
1626110012.4854698,-2.576105887310438e-06,-9.423436210018999e-08,5.77,4.97,4.268782959115924e-06,3.970960824517533e-05,1.3414634466171265,-0.00390625,0.0078125,2.633131410793523e-06,0.0010089308794883985,,,-2.541500848084029,,0.002811448031791954,0.0028114480317920007,0.06331249708548611,0.06331249708549068,0.0,-3.494279044885273e-06
1626110012.54547,-2.4857803327518847e-06,-9.096077743139644e-08,5.73,4.98,4.268782959115924e-06,3.970960824517533e-05,1.3414634466171265,-0.00390625,0.0078125,2.6351021149956256e-06,0.0012129133789395524,,,-2.541492915717782,,0.0028114680803340546,0.002811468080334098,0.06329830535137308,0.06329830535137723,0.0,-3.4910092055576792e-06
1626110012.60547,-2.424460279642426e-06,-8.777047753738107e-08,5.73,4.99,4.217351943225367e-06,3.923118129023351e-05,1.3414634466171265,-0.00634765625,-0.00244140625,2.634603518454433e-06,0.0008113228065858819,,,-2.541504675693847,,0.0028115319353094947,0.00281153193530954,0.06329950192122522,0.06329950192122898,0.0,-3.487785205991162e-06
1626110012.66547,-2.5768018587041154e-06,-8.466139728768257e-08,5.73,4.99,4.3214840843575075e-06,4.019985135528259e-05,1.2804877758026123,-0.01220703125,0.00537109375,2.6336486223882304e-06,0.0007604079374721538,,,-2.541509605326072,,0.002811419349496861,0.0028114193494969057,0.06331049949248917,0.06331049949249255,0.0,-3.4846000155976146e-06
1626110012.7254698,-2.4652247816761857e-06,-8.16332219547735e-08,5.72,4.98,4.268782959115924e-06,3.970960824517533e-05,1.2804877758026123,-0.01220703125,0.00537109375,2.635122936659914e-06,0.0007179730988250368,,,-2.5415125991349137,,0.002811391110904618,0.0028113911109046586,0.06330132517529488,0.06330132517529793,0.0,-3.4814295079781166e-06
1626110012.7854698,-2.577324016746494e-06,-7.86846672035002e-08,5.72,4.98,4.268782959115924e-06,3.970960824517533e-05,1.2195122241973877,-0.0068359375,0.00146484375,2.634208477277421e-06,0.0006726510826943956,,,-2.5415153836407405,,0.00281147725446014,0.0028114772544601844,0.0633078944968777,0.06330789449688042,0.0,-3.4783084212772645e-06
1626110012.84547,-2.507924471609966e-06,-7.581535789521694e-08,5.71,4.97,4.268782959115924e-06,3.970960824517533e-05,1.2195122241973877,-0.0068359375,0.00146484375,2.6360407324780304e-06,0.0007224712387049748,,,-2.5415139813892176,,0.002811517995893801,0.002811517995893843,0.06329341142593775,0.06329341142594018,0.0,-3.475207323358521e-06
1626110012.91547,-2.6350424703127435e-06,-7.30240055137977e-08,5.7,4.98,4.268782959115924e-06,3.970960824517533e-05,1.2804877758026123,0.0078125,0.00537109375,2.6086940773541404e-06,0.0009339446357933556,,,-2.541498807260475,,0.0033803428257223405,0.0033803428257224025,0.06402550790219251,0.06402550790219469,0.0,-3.4728933508628424e-06
1626110012.9654698,-2.5509185232204424e-06,-7.031073865348268e-08,5.7,4.98,4.268782959115924e-06,3.970960824517533e-05,1.3414634466171265,-0.00048828125,-0.00341796875,2.635551945319106e-06,0.0008846862933810779,,,-2.5415076583371183,,0.002811507844666622,0.0028115078446666656,0.06329598579572777,0.06329598579572966,0.0,-3.469157656439563e-06
1626110013.0254698,-2.435457016946964e-06,-6.767357849731948e-08,5.68,4.96,4.268782959115924e-06,3.970960824517533e-05,1.3414634466171265,-0.00048828125,-0.00341796875,2.6355278692221918e-06,0.0010521329945621753,,,-2.541501735144135,,0.002811450583772939,0.0028114505837729805,0.06329568406081106,0.06329568406081268,0.0,-3.4661982683729846e-06
1626110013.08547,-2.5777499410474484e-06,-6.511160404100281e-08,5.68,4.96,4.268782959115924e-06,3.970960824517533e-05,1.3414634466171265,-0.00830078125,-0.00439453125,2.6344604036270305e-06,0.0009859400335416062,,,-2.541502398722303,,0.0028114157097867704,0.002811415709786814,0.06330632696215824,0.06330632696215963,0.0,-3.4632940678312626e-06
1626110013.14547,-2.5292553172195366e-06,-6.262443741148166e-08,5.69,4.95,4.217351943225367e-06,3.923118129023351e-05,1.3414634466171265,-0.00830078125,-0.00439453125,2.6358039501714894e-06,0.0006370086830348967,,,-2.5415151424758498,,0.0028114775262757,0.0028114775262757423,0.06329764769415612,0.0632976476941573,0.0,-3.4604250022370182e-06
1626110013.20747,-2.634779816195383e-06,-6.020901001719299e-08,5.74,4.96,4.268782959115924e-06,3.970960824517533e-05,1.3414634466171265,0.0,-0.0009765625,2.6295109192485825e-06,0.0007143940349863276,,,-2.541513510722826,,0.002924215118283616,0.002924215118283663,0.06344971644331245,0.06344971644331342,0.0,-3.4577340152980342e-06
1626110013.2654698,-2.571725319855578e-06,-5.78650908167757e-08,5.74,4.96,4.268782959115924e-06,3.970960824517533e-05,1.3414634466171265,-0.0087890625,0.00390625,2.63410474231322e-06,0.0006710076202468061,,,-2.5415164127481304,,0.0028113987813784057,0.0028113987813784477,0.06331423041867643,0.06331423041867722,0.0,-3.454853529183057e-06
1626110013.32547,-2.4551375392030545e-06,-5.559123175958341e-08,5.72,4.95,4.268782959115924e-06,3.970960824517533e-05,1.3414634466171265,-0.0087890625,0.00390625,2.635181743635516e-06,0.0007199551386484539,,,-2.5415149408732804,,0.0028113827204911913,0.0028113827204912295,0.06330755039715569,0.06330755039715633,0.0,-3.452132013610846e-06
1626110013.38547,-2.577388931706039e-06,-5.3386379136819026e-08,5.72,4.95,4.268782959115924e-06,3.970960824517533e-05,1.3414634466171265,-0.0068359375,0.00341796875,2.6342385795464624e-06,0.0006745574152424283,,,-2.5415163597159767,,0.0028114596867794316,0.002811459686779474,0.06331464492285042,0.06331464492285091,0.0,-3.4494713262651037e-06
1626110013.4454699,-2.4974203277309477e-06,-5.1249556720581175e-08,5.69,4.95,4.268782959115924e-06,3.970960824517533e-05,1.3414634466171265,-0.0068359375,0.00341796875,2.636123274650958e-06,0.0009308498522044485,,,-2.541506692658235,,0.002811497126110494,0.002811497126110534,0.0632992848123612,0.06329928481236156,0.0,-3.4468483975073413e-06
1626110013.51947,-2.6351301068901496e-06,-4.917942116357539e-08,5.73,4.98,4.268782959115924e-06,3.970960824517533e-05,1.402438998222351,-0.00634765625,0.0029296875,2.598238415303302e-06,0.0009404270817911923,,,-2.5414920964544128,,0.0036115316732950207,0.0036115316732950892,0.0643229014598633,0.06432290145986354,0.0,-3.4449800578717693e-06
1626110013.56547,-2.540467723082801e-06,-4.717494152598583e-08,5.78,4.98,4.217351943225367e-06,3.923118129023351e-05,1.402438998222351,-0.0009765625,0.0078125,2.636091980201251e-06,0.0008945184236929962,,,-2.541506076354782,,0.002811543826720728,0.0028115438267207696,0.06329589820459287,0.06329589820459298,0.0,-3.441781821374847e-06
1626110013.62547,-2.4781616726314242e-06,-4.5234655335157425e-08,5.78,4.98,4.3214840843575075e-06,4.019985135528259e-05,1.402438998222351,-0.0009765625,0.0078125,2.6376581030905655e-06,0.0009143205957115027,,,-2.541505139664068,,0.0028115771246048247,0.002811577124604864,0.06327783305115427,0.06327783305115427,0.0,-3.4393204264433235e-06
1626110013.6854699,-2.579918472506864e-06,-4.335662286029254e-08,5.75,4.98,4.268782959115924e-06,3.970960824517533e-05,1.3414634466171265,0.00244140625,-0.00048828125,2.636467624705876e-06,0.0008567844209581897,,,-2.5415072796838927,,0.002811567295878595,0.0028115672958786376,0.06328262581050853,0.06328262581050842,0.0,-3.4369256110938745e-06
1626110013.741261,-2.5304798629127197e-06,-4.4831114864229466e-08,5.75,4.98,4.268782959115924e-06,3.970960824517533e-05,1.3414634466171265,0.00244140625,-0.00048828125,2.652108126119737e-06,0.0009224658714253929,,,-2.541505555934776,,0.0027587093832599314,0.0027587093832599696,0.06321242902467382,0.06321242902467362,0.0,-3.443361092464834e-06
1626110013.807261,0.3811555522756341,-4.380085169089268e-08,5.73,4.97,0.0052690571174025536,0.04901448264718056,1.4634146690368652,-0.005859375,-0.00048828125,0.025842418089398876,0.0009742220555433389,0.5,0.0,-2.541497833503369,0.0,0.0031395631151557497,0.003139563137623378,0.06370586679340778,0.06370586679340749,0.0,-3.4434791554399083e-06
1626110013.8612611,0.3788056082947018,-1.7264219886127472e-07,5.7,4.96,0.06660064309835434,0.18200545012950897,-0.792682945728302,-0.01904296875,0.00244140625,0.044910774226387,0.0009540959378066589,0.5,0.0,-2.540762411555614,0.0,0.002808974098429877,0.002808974788742817,0.06328439721592605,0.06328440106755714,0.0,-3.796201611472513e-06
1626110013.921261,0.34909890611935807,1.427307223429626e-06,5.7,4.96,0.1414433717727661,-0.04966539889574051,-0.792682945728302,-0.01904296875,0.00244140625,0.06549448138406151,0.005888042638316185,0.5,0.0,-2.5347008673796534,0.0,0.00281087876430099,0.00281088074928,0.06328357592796204,0.06328359917484307,0.0,5.054457293481429e-07
1626110013.981261,0.3479159185037358,1.0934780305190094e-05,5.74,4.97,0.2554819583892822,-0.06542588025331497,4.0853657722473145,0.04833984375,-0.36669921875,0.08719738743748845,0.005681477429451705,0.5,0.0,-2.531532486685049,0.0,0.0028113119056854454,0.0028113161306327628,0.0632944157854565,0.0632944921893712,0.0,2.6439016673977485e-05
1626110014.041261,-0.09662671645479505,2.1248410535671068e-05,5.74,4.97,0.3547067642211914,-0.015616451390087605,4.0853657722473145,0.04833984375,-0.36669921875,0.10076877855144098,0.008686644560402568,0.5,0.0,-2.531323641983269,0.0,0.002811413975699717,0.0028114203506129504,0.06328255357480259,0.06328272510234054,0.0,5.560102796232505e-05
1626110014.1012611,-0.09099625453940338,2.1350644050168178e-05,5.73,4.95,0.4590649902820587,-0.03266269713640213,0.8536585569381714,0.0439453125,-0.0771484375,0.10541985213903442,-0.004579985568880274,0.5,0.0,-2.532790256094629,0.0,0.0028115032647273094,0.002811511083992809,0.063285942876373,0.06328625392368391,0.0,5.7800206556388146e-05
1626110014.161261,-0.09921992295831535,7.972519782780478e-06,5.71,4.95,0.5217862725257874,-0.03379448875784874,4.817073345184326,-0.17333984375,-0.39990234375,0.11594278673593748,-0.004368428387097,0.5,0.0,-2.5344802386475065,0.0,0.0028113959293593416,0.0028114043493521904,0.06329893484735445,0.0632994141996435,0.0,2.3050897945138002e-05
1626110014.221261,-0.10296106820757472,-7.484200006521763e-06,5.71,4.95,0.542313814163208,-0.04960707575082779,4.817073345184326,-0.17333984375,-0.39990234375,0.1311688714461925,-0.007934994246248208,0.5,0.0,-2.535719927369412,0.0,0.00281137193506731,0.0028113809646074786,0.0632915586758396,0.06329221712491666,0.0,-1.896944693693467e-05
1626110014.281261,-0.12201520294859237,-2.2994408918401575e-05,5.7,4.92,0.5333759188652039,-0.0332588329911232,0.4878048896789551,0.37109375,0.15185546875,0.14818715260297388,-0.007509604400320557,0.5,0.0,-2.537145109066453,0.0,0.00281146546712614,0.0028114785517443933,0.06329972026731637,0.06330059953033322,0.0,-6.242782307290392e-05
1626110014.3412611,-0.13498101986516547,-3.80421266126106e-05,5.7,4.92,0.5093688368797302,0.03269955888390541,0.4878048896789551,0.37109375,0.15185546875,0.16491900810001592,-0.013695576706285338,0.5,0.0,-2.5387588392715648,0.0,0.0028115120332233585,0.0028115279130628236,0.06328664190326477,0.06328778094212952,0.0,-0.00010599846991979478
1626110014.411261,-0.17952204739645683,-4.6605988218503195e-05,5.68,4.89,0.5061890482902527,-0.01714751310646534,1.8902438879013062,-0.16455078125,0.07275390625,0.1777268271971939,-0.006819067771028279,0.5,0.0,-2.5390695862617587,0.0,0.003380347376777505,0.0033803791351911597,0.06402001416600363,0.06402150381639145,0.0,-0.00013322194952734137
1626110014.461261,-0.1692904509910962,-4.602916639878809e-05,5.53,5.12,0.4943227469921112,-0.03373894467949867,-2.7439024448394775,-0.08154296875,-0.02978515625,0.19180375424729895,-0.006464681444917739,0.5,0.0,-2.5391143859384657,0.0,0.002811516601719008,0.0028115421579356648,0.0632914992820631,0.06329338491418192,0.0,-0.00013486851962265793
1626110014.521261,-0.17346367675888721,-4.8474447760501125e-05,5.53,5.12,0.4919520616531372,1.650528793106787e-05,3.5365853309631348,-0.6767578125,0.35400390625,0.20208088089881424,0.0022463689001431665,0.5,0.0,-2.5398137506826357,0.0,0.002811464252604563,0.002811492325702508,0.06329210765217613,0.06329445823697533,0.0,-0.00014457782831620288
1626110014.5812612,-0.1944386515191641,-4.997555788844142e-05,5.57,5.01,0.49976471066474915,0.016884010285139084,3.5365853309631348,-0.6767578125,0.35400390625,0.21072735191244696,0.0020963304055967615,0.5,0.0,-2.5399857157470906,0.0,0.002811435678874233,0.002811468426265813,0.06330352986917377,0.06330640899109753,0.0,-0.00015197023738520304
1626110014.641261,-0.19951452409495607,-4.581116927511696e-05,5.57,5.01,0.5034542083740234,0.017455657944083214,1.7682926654815674,0.2919921875,0.10302734375,0.21845387745975503,0.014841498260001421,0.5,0.0,-2.5388222735595782,0.0,0.002811501835968868,0.0028115372503019877,0.0632955147706797,0.06329894353283592,0.0,-0.0001434874102294368
1626110014.7032611,-0.22498564043119845,-4.274284724018617e-05,5.61,4.91,0.5101720094680786,-0.015482768416404724,0.0,0.11669921875,0.19140625,0.22453564665695044,0.008523759642703528,0.5,0.0,-2.538642438031304,0.0,0.0029242470754500672,0.0029242894640241716,0.0634481539837918,0.06345219547393247,0.0,-0.000137985292934565
1626110014.761261,-0.2174206460692842,-4.4008103786228685e-05,5.62,4.84,0.49945130944252014,0.01637912355363369,0.0,0.11669921875,0.19140625,0.23085423069715008,0.007984763149444156,0.5,0.0,-2.539135412517278,0.0,0.0028114315915524993,0.0028114728347512262,0.06331313036699139,0.06331779537990807,0.0,-0.00014365559012806398
1626110014.8212612,-0.21334900547845315,-4.507085436797024e-05,5.62,4.84,0.48214682936668396,4.718439231510274e-05,0.0,0.11669921875,0.19140625,0.2359048085077962,0.002066094664250246,0.5,0.0,-2.53917632870346,0.0,0.0028114154692530165,0.0028114554132013386,0.0633068427489084,0.06331209944469267,0.0,-0.00014932233338267118
1626110014.881261,-0.22921142250883805,-4.2508258116995205e-05,5.64,4.77,0.39584779739379883,1.6706571841496043e-05,-0.8536585569381714,-0.064453125,0.1806640625,0.23995144064450452,0.0019465694979448602,0.5,0.0,-2.5389749661598864,0.0,0.002811499429289863,0.0028115461504875424,0.06331425996817579,0.06332013489809139,0.0,-0.00014509572363035397
1626110014.941261,-0.22719382426530757,-4.361646761180372e-05,5.64,4.77,0.3099987208843231,-0.03319403901696205,-0.8536585569381714,-0.064453125,0.1806640625,0.2409253173358764,-0.003578548738201915,0.5,0.0,-2.53982618833607,0.0,0.0028115365141669875,0.0028115819159349837,0.06329916201678035,0.0633056178308987,0.0,-0.00015079986131786904
1626110015.0152612,-0.2371443678143333,-4.165792085233967e-05,5.65,4.73,0.19195424020290375,-0.017264990136027336,2.012195110321045,0.01318359375,0.05859375,0.2338243050237113,-0.0016722188334108363,0.5,0.0,-2.5402943819838475,0.0,0.003611603506279817,0.003611685040676338,0.06432303164020266,0.064330159379333,0.0,-0.00014865003810861287
1626110015.0612612,-0.23205899266300783,-3.886766130901651e-05,5.67,4.66,0.10404840856790543,-0.016863875091075897,2.012195110321045,0.01318359375,0.05859375,0.227876938050981,-0.0016094666998191765,0.5,0.0,-2.5406632866103163,0.0,0.0028115875074220626,0.0028116368125101097,0.06329614941464667,0.0633037719922283,0.0,-0.00014297008988202437
1626110015.1212611,-0.21960482629273687,-3.340075679947793e-05,5.67,4.66,0.019565515220165253,-3.081312911490386e-07,1.9512195587158203,-0.00634765625,0.08935546875,0.2133389476956608,0.011056905514327654,0.5,0.0,-2.540566002696347,0.0,0.002811616556912009,0.0028116606688586366,0.06327820884594057,0.06328628350295253,0.0,-0.0001297623012761245
1626110015.181261,-0.2156702221213464,-2.8047364809625418e-05,5.67,4.63,4.6020250010769814e-06,-4.2809537262655795e-05,1.9512195587158203,-0.00634765625,0.08935546875,0.19419717925439137,0.010357619911120332,0.5,0.0,-2.540662062719006,0.0,0.0028116062248536885,0.002811649439011416,0.06328309197446795,0.06329154102668702,0.0,-0.00011704784102690115
1626110015.241261,0.23658328918883006,-2.1554470349478364e-05,5.67,4.63,0.0331139974296093,0.016346869990229607,2.1341464519500732,-0.00634765625,-0.04736328125,0.1984837360686325,0.008652616861462707,0.5,0.0,-2.5411189494648307,0.0,0.0028115720062161075,0.002811610653293161,0.06327145609553941,0.06328014397435129,0.0,-0.00010092198011903731
1626110015.307261,0.23891682804227413,-1.7393635959973032e-05,5.67,4.6,0.08453837037086487,-0.016347484663128853,2.1341464519500732,-0.00634765625,-0.04736328125,0.20278741849093457,0.006602661792856531,0.5,0.0,-2.5407827025918954,0.0,0.0031512569073191385,0.003151307065620514,0.06371503490936187,0.0637239507380303,0.0,-9.097491075277893e-05
1626110015.3612611,0.23393648404621323,-1.2950844378473998e-05,5.67,4.58,0.18029482662677765,0.0005445978022180498,-1.1585365533828735,0.00146484375,-0.1298828125,0.20520037583842549,0.006216394589045952,0.5,0.0,-2.541066561839664,0.0,0.0028114692280640664,0.0028115116724526023,0.06328505863661699,0.06329409961745844,0.0,-7.973766864832776e-05
1626110015.421261,0.2237953803276674,-9.888476614780479e-06,5.67,4.58,0.29355379939079285,0.0332007110118866,2.317073106765747,-0.33544921875,-0.34765625,0.21215011599349937,0.006126631383969836,0.5,0.0,-2.540982591898384,0.0,0.0028114167415243608,0.0028114575523859727,0.06328355379736324,0.06329271106997575,0.0,-7.212505903712104e-05
1626110015.481261,0.2296646200388222,-6.905170166786414e-06,5.66,4.54,0.38995909690856934,0.01635238155722618,2.317073106765747,-0.33544921875,-0.34765625,0.22429453165973323,0.005781170371157,0.5,0.0,-2.5402108639638077,0.0,0.002811444623641257,0.0028114906562712624,0.06329472736171309,0.06330403005886576,0.0,-6.467172418165309e-05
1626110015.541261,-0.21500265097125504,-1.2491466031961095e-06,5.66,4.54,0.4826611578464508,-0.03373894467949867,-1.7073171138763428,0.1181640625,-0.13134765625,0.2155745110588738,0.00695801891410961,0.5,0.0,-2.539455410669403,0.0,0.0028114631403369154,0.0028115070765518946,0.06328311599329718,0.06329254247956467,0.0,-4.959812409862673e-05
1626110015.6012611,-0.1989541997077724,1.6714062779347947e-06,5.66,4.5,0.5293081998825073,1.6706571841496043e-05,1.7682926654815674,-0.4833984375,-0.0419921875,0.21386467033216666,0.00894301269161544,0.0,0.0,-2.5398262739953332,0.0,0.0028115373185278883,0.0028115815397815056,0.06328662715959808,0.06329617631406277,0.0,-4.130945346391697e-05
1626110015.661261,-0.2078285701955371,-1.7530494720534364e-06,5.69,4.47,0.5293081998825073,1.6706571841496043e-05,1.7682926654815674,-0.4833984375,-0.0419921875,0.21743549211349797,0.008375745952233917,0.0,0.0,-2.5400160397941125,0.0,0.002811426336277621,0.0028114688334334105,0.06329965824185635,0.06330931459876125,0.0,-5.0273279167433566e-05
1626110015.721261,-0.20123225826519495,-5.265306602563557e-06,5.69,4.47,0.4651375710964203,-0.048493195325136185,0.6707317233085632,0.3701171875,0.49169921875,0.2238126415344197,-0.0014444596903578114,0.0,0.0,-2.540239539933009,0.0,0.0028113997129179972,0.002811439286106647,0.06329226971791409,0.06330196427053628,0.0,-6.0304437831694874e-05
1626110015.781261,-0.21690210210759223,-4.404355927522167e-06,5.71,4.44,0.3790833652019501,-0.017139652743935585,0.6707317233085632,0.3701171875,0.49169921875,0.22917317837751877,-0.001373881370145655,0.0,0.0,-2.5406310948602013,0.0,0.0028114958178699105,0.002811541994505561,0.06330039153645048,0.06331015712284992,0.0,-5.82628185476726e-05
1626110015.8412611,-0.21761774413334814,-2.7151238376359087e-06,5.71,4.44,0.26867446303367615,-0.017435520887374878,0.6707317233085632,0.3701171875,0.49169921875,0.2308795572285347,0.0010324698706302541,0.0,0.0,-2.540719336742153,0.0,0.0028115399745017853,0.0028115858973082803,0.06328725541909849,0.06329709153537733,0.0,-5.384916843225905e-05
1626110015.911261,-0.22668984204052792,-8.734105849113106e-07,5.73,4.42,0.07845821976661682,-0.0005871934117749333,0.8536585569381714,0.0078125,0.14697265625,0.22442294616439726,0.004656534594849986,0.0,0.0,-2.540820863811018,0.0,0.003380383027535647,0.003380452764417628,0.06402056501797901,0.06403059301790844,0.0,-4.885284478680705e-05
1626110015.961261,-0.22320180521767927,8.741130637226605e-07,5.76,4.39,0.07845821976661682,-0.0005871934117749333,0.8536585569381714,0.0078125,0.14697265625,0.2165256784307296,0.004397986915181855,0.0,0.0,-2.541134006453441,0.0,0.0028115381157558495,0.0028115865974473317,0.06329198134360241,0.06330208432501662,0.0,-4.40754510610909e-05
1626110016.021261,-0.20577424314061213,3.11906674939138e-06,5.76,4.39,0.01003686897456646,-0.016318969428539276,1.097561001777649,-0.01318359375,0.06591796875,0.20104359725013363,0.0038455544524066553,0.0,0.0,-2.541450711316058,0.0,0.0028114787809673898,0.002811522226799961,0.06329252556779838,0.06330270981485384,0.0,-3.783316370823735e-05
1626110016.0812612,-0.2037611902204389,4.685457328655127e-06,5.77,4.38,2.9077202725602547e-06,-2.704855978663545e-05,1.097561001777649,-0.01318359375,0.06591796875,0.1815945600711033,0.003615520561538052,0.0,0.0,-2.5412201109473402,0.0,0.002811442829214834,0.0028114827834012784,0.0633038840070771,0.06331407595436,0.0,-3.3345160821203726e-05
1626110016.141261,-0.18193838943625862,6.793353636202981e-06,5.77,4.38,2.9077202725602547e-06,-2.704855978663545e-05,1.2195122241973877,0.00341796875,-0.0087890625,0.16099590548610718,0.0065168169080437426,0.0,0.0,-2.5410025788597617,0.0,0.0028115010981729126,0.002811534958860294,0.06329580630757808,0.06330587043565873,0.0,-2.713241930584981e-05
1626110016.2024322,-0.14144278080173547,8.274499925304086e-06,5.79,4.35,2.943618028439232e-06,-2.7382493499317206e-05,1.1585365533828735,0.00439453125,0.02490234375,0.14115988171481653,0.0038320535482307475,0.0,0.0,-2.5410194785672364,0.0,0.0029139538781538027,0.002913984373745958,0.06343603288361642,0.06344587136019644,0.0,-2.277010431199792e-05
1626110016.260432,-0.1446717612109948,9.679794385765205e-06,5.79,4.35,2.943618028439232e-06,-2.7382493499317206e-05,1.1585365533828735,0.00439453125,0.02490234375,0.12342615301080155,0.0035993786446129866,0.0,0.0,-2.5410347346321895,0.0,0.002809198732085511,0.0028092223676338185,0.06331033052434137,0.06331980630933208,0.0,-1.8469209951999964e-05
1626110016.3204322,-0.12093455144730264,1.0690229180350012e-05,5.79,4.35,2.9077202725602547e-06,-2.704855978663545e-05,1.2804877758026123,-0.01220703125,0.0126953125,0.10742348108556549,0.002099740935167968,0.0,0.0,-2.5410864591067903,0.0,0.00281092562364373,0.0028109439700672346,0.06330559403707764,0.063314600611224,0.0,-1.5193772922322908e-05
1626110016.3804321,-0.11025136051646324,1.1543356156683851e-05,5.8,4.35,2.9077202725602547e-06,-2.704855978663545e-05,1.2804877758026123,-0.01220703125,0.0126953125,0.09328852203288149,0.0019666527542987716,0.0,0.0,-2.5411039522595678,0.0,0.0028113755231617805,0.002811391849369436,0.06331318135576519,0.06332165381144694,0.0,-1.2229815251286595e-05
1626110016.440432,-0.0929722981007921,1.219014185293866e-05,5.8,4.35,2.8726874461426632e-06,-2.6722673283074982e-05,1.2804877758026123,-0.01953125,-0.00390625,0.08100771240744477,0.0016312704386084761,0.0,0.0,-2.541122019956523,0.0,0.002811488311151306,0.0028115015474284755,0.06329809326268256,0.06330598101214147,0.0,-9.783223442153036e-06
1626110016.500432,-0.07880034628310362,1.2689174061505704e-05,5.79,4.34,2.943618028439232e-06,-2.7382493499317206e-05,1.2804877758026123,-0.0205078125,0.0029296875,0.07027196896543395,0.0013328702107685672,0.0,0.0,-2.5411371326597387,0.0,0.0028115595397809434,0.002811571039566662,0.06329249041700208,0.0632997773449257,0.0,-7.698393543401165e-06
1626110016.5604322,-0.07215773417929103,1.3073965336244661e-05,5.79,4.32,2.9077202725602547e-06,-2.704855978663545e-05,1.2804877758026123,-0.0205078125,0.0029296875,0.06092835255728791,0.0012491382339920535,0.0,0.0,-2.5411449825757164,0.0,0.0028114846528758623,0.0028114945682627145,0.06330126762856707,0.06330795905055664,0.0,-5.889153938482173e-06
1626110016.6204321,-0.060251279576538475,1.337761595247936e-05,5.79,4.32,2.9077202725602547e-06,-2.704855978663545e-05,1.2804877758026123,-0.0068359375,0.00927734375,0.05285912508438497,0.0011963471880399132,0.0,0.0,-2.541149144942374,0.0,0.002811444015199184,0.0028114522121326776,0.0632895071837757,0.06329561033480875,0.0,-4.277007506886328e-06
1626110016.680432,-0.05428121490859412,1.3605521503873318e-05,5.78,4.32,2.9077202725602547e-06,-2.704855978663545e-05,1.2804877758026123,-0.0068359375,0.00927734375,0.04581997422872548,0.0011207532822547926,0.0,0.0,-2.541153621244672,1.0,0.002811505482628952,0.0028115128434063495,0.06329596071110034,0.06330150138853592,0.0,-2.8544163586262025e-06
1626110016.740432,-0.04604568626271718,1.4272152987953169e-05,5.78,4.32,2.943618028439232e-06,-2.7382493499317206e-05,1.3414634466171265,-0.013671875,0.01611328125,0.03974668606336594,0.04734017821833729,0.0,0.0,-2.5403481974539774,1.0,0.0028115262388128614,0.0028115325389272867,0.06328390543767141,0.0632889106951136,0.0,-3.8909905988901813e-07
1626110016.806432,-0.03445155326011129,1.6833038222633564e-05,5.78,4.33,0.002307822462171316,0.3787020444869995,-17.378049850463867,0.0087890625,-0.0771484375,0.02971493136089653,0.14305296524277925,0.0,0.0,-2.5298345895768404,1.0,0.00281145563349692,0.002811460389961824,0.06329493234844272,0.06329897366984094,0.0,8.728060351382842e-06
1626110016.8604321,-0.03523026600497141,1.6962947514852313e-05,5.79,4.33,0.009143025614321232,0.6341977119445801,-17.378049850463867,0.0087890625,-0.0771484375,0.0254643587888859,0.15068837346571434,0.0,0.0,-2.5138830347479404,1.0,0.0028114004312243496,0.0028114043884384372,0.06329215728569505,0.0632957687168345,0.0,-6.636481828631258e-06
1626110016.920432,-0.029141048004917885,1.1445183334361841e-05,5.79,4.33,0.009143025614321232,0.6341977119445801,-37.621952056884766,-0.015625,-0.02197265625,0.021639334360365303,0.19758537449394759,0.0,0.0,-2.4862053921141585,1.0,0.002811411045566845,0.0028114143256158224,0.06330247349441785,0.06330569122710063,0.0,-3.3224809503202256e-05
1626110016.980432,-0.026309356914018808,1.7598250994839906e-06,5.8,4.33,0.011835873126983643,0.8734496235847473,-37.621952056884766,-0.015625,-0.02197265625,0.01817148966334891,0.1881574793023442,0.0,0.0,-2.4471774218657685,1.0,0.0028114165848128134,0.0028114190875762448,0.06329899005448053,0.0633018474909208,0.0,-8.311853867614365e-05
1626110017.040432,-0.02213819208347756,-1.6056469184983227e-05,5.8,4.33,0.01096955593675375,0.9680839776992798,-52.560977935791016,-0.0380859375,-0.1220703125,0.01817148966334891,0.1881574793023442,0.0,0.0,-2.4471774218657685,1.0,0.0028114165848128134,0.0028114190875762448,0.06329899005448053,0.0633018474909208,0.0,-8.311853867614365e-05
1626110017.1004322,-0.01781900874938038,-3.5831485146868774e-05,5.8,4.31,0.008698822930455208,0.9399967789649963,-53.658538818359375,0.0263671875,-0.00732421875,0.012621207490372035,0.17482646565341836,0.0,0.0,-2.345980600193074,1.0,0.002811145013835966,0.0028111460198338395,0.06332648117594836,0.06332871623341338,0.0,-0.00019243757909391017
1626110017.160432,-0.01578012621896413,-5.358832358050077e-05,5.78,4.31,0.008275599218904972,0.9077737331390381,-53.658538818359375,0.0263671875,-0.00732421875,0.010369748362724255,0.17066575372623732,0.0,0.0,-2.290999185063955,1.0,0.002811016811636773,0.0028110171422863076,0.06332747272102301,0.06332944046488281,0.0,-0.000247925021356887
1626110017.220432,-0.012643126225474373,-7.202110798639326e-05,5.78,4.31,0.014851256273686886,0.956290066242218,-52.317073822021484,-0.0908203125,0.150390625,0.008399142312476142,0.16742518448301416,0.0,0.0,-2.2360588841970057,0.0,0.0028110483677241914,0.0028110481551543868,0.06334533687876918,0.06334706491370906,0.0,-0.0002987433429882331
1626110017.280432,-0.010865601687704323,-8.834605419334848e-05,5.77,4.33,0.014851256273686886,0.956290066242218,-52.317073822021484,-0.0908203125,0.150390625,0.006537571901256896,0.16552170176946315,0.0,0.0,-2.18062584880339,0.0,0.002811036230180695,0.002811035582237948,0.06334335080397428,0.06334486356957642,0.0,-0.0003611202183471989
1626110017.3404322,-0.008681533310901768,-0.00010858335550256888,5.77,4.33,0.007301219739019871,0.634924054145813,-43.719512939453125,0.0,0.076171875,0.006537571901256896,0.16552170176946315,0.0,0.0,-2.18062584880339,0.0,0.002811036230180695,0.002811035582237948,0.06334335080397428,0.06334486356957642,0.0,-0.0003611202183471989
1626110017.410432,-0.005007067575169253,-0.00011977554228667411,5.74,4.34,0.0014455338241532445,-0.04960678145289421,6.280488014221191,-0.044921875,-0.00341796875,0.00393395615004862,0.1578112728083653,0.0,0.0,-2.1010216677082236,0.0,0.0028110615324628985,0.0028110603783360203,0.06336859072872147,0.06336974079683973,0.0,-0.00039691664206733623
1626110017.460432,-0.005241728811525221,-0.00011574380079337513,5.72,4.34,0.0020876890048384666,-0.015965798869729042,6.280488014221191,-0.044921875,-0.00341796875,0.00329184055143237,0.14334640228906087,0.0,0.0,-2.090557509989824,0.0,0.002811268087219656,0.002811266874392133,0.06335700549701512,0.06335800342504881,0.0,-0.00037177042954086913
1626110017.520432,-0.003950365074017392,-0.00010381225429162017,5.72,4.34,4.77884168503806e-06,4.445434387889691e-05,1.402438998222351,-0.025390625,0.0224609375,0.0028217890965094783,0.13392520064113586,0.0,0.0,-2.0863840280541335,0.0,0.0028114842056227067,0.002811483048633292,0.06336176627291638,0.06336262982803283,0.0,-0.0003468369480529578
1626110017.5804322,-0.0033920185766169765,-9.231316299468533e-05,5.7,4.35,4.77884168503806e-06,4.445434387889691e-05,1.402438998222351,-0.025390625,0.0224609375,0.002432554740065885,0.11156661188193406,0.0,0.0,-2.0853478482833974,0.0,0.0028115849215081153,0.0028115838677221306,0.0633487160235529,0.06334946082990903,0.0,-0.0003252752552620124
1626110017.6404321,-0.0028524803352536006,-8.22700827132622e-05,5.7,4.35,0.0022056482266634703,-0.016847629100084305,1.585365891456604,-0.00048828125,0.00830078125,0.002432554740065885,0.11156661188193406,0.0,0.0,-2.0853478482833974,0.0,0.0028115849215081153,0.0028115838677221306,0.0633487160235529,0.06334946082990903,0.0,-0.0003252752552620124
1626110017.7024322,-0.0021289549563144545,-7.372680209472964e-05,5.69,4.36,1.3521456594389747e-06,-1.2578098903759383e-05,1.3414634466171265,-0.00537109375,0.01220703125,0.001882772044678845,0.0368926299368382,0.0,0.0,-2.0880435273122218,0.0,0.0028115089181819488,0.0028115081115397678,0.06335757000112337,0.06335811937749633,0.0,-0.0002896620008704852
1626110017.760432,-0.002168297771566662,-6.536844040129459e-05,5.68,4.35,1.3688388662558282e-06,-1.2733384210150689e-05,1.3414634466171265,-0.00537109375,0.01220703125,0.0016505580035481126,0.019217392255943513,0.0,0.0,-2.088842922528349,0.0,0.002811486006626634,0.002811485312737933,0.06334732897945088,0.06334779854448748,0.0,-0.0002730299457393278
1626110017.8204322,-0.001840389965110969,-5.776918663656063e-05,5.68,4.35,1.335854790340818e-06,-1.2426556168065872e-05,1.2804877758026123,-0.00390625,0.01220703125,0.0014389927682550117,0.01797765338746926,0.0,0.0,-2.0890470906233314,0.0,0.0028115552699595255,0.0028115546764935955,0.06335108999499975,0.06335149022224335,0.0,-0.0002569531872989219
1626110017.8804321,-0.0016919459376832278,-5.0605334712451895e-05,5.67,4.35,1.335854790340818e-06,-1.2426556168065872e-05,1.2804877758026123,-0.00390625,0.01220703125,0.0012522104743150507,0.010557956275881254,0.0,0.0,-2.0894040382097434,0.0,0.0028115850533027807,0.0028115845474656277,0.06333260029097054,0.0633329402714121,0.0,-0.00024180627747386486
1626110017.940432,-0.0014331417873452074,-4.393327992433829e-05,5.67,4.35,1.3521456594389747e-06,-1.2578098903759383e-05,1.2195122241973877,-0.01171875,0.005859375,0.0012522104743150507,0.010557956275881254,0.0,0.0,-2.0894040382097434,0.0,0.0028115850533027807,0.0028115845474656277,0.06333260029097054,0.0633329402714121,0.0,-0.00024180627747386486
1626110018.000432,-0.0012176341935401618,-3.766566944334311e-05,5.65,4.36,1.3521456594389747e-06,-1.2578098903759383e-05,1.2804877758026123,-0.00244140625,0.00732421875,0.0009434782405409471,0.0058793324274338836,0.0,0.0,-2.089706307458923,0.0,0.0028115516222920207,0.0028115512584589403,0.06332969747544404,0.06332994088877836,0.0,-0.0002135634512435433
1626110018.0604322,-0.0011164736362398412,-3.177805121532448e-05,5.65,4.36,1.3688388662558282e-06,-1.2733384210150689e-05,1.2804877758026123,-0.00244140625,0.00732421875,0.0008187896117213304,0.003977051534864108,0.0,0.0,-2.0898045224347404,0.0,0.0028115053830459775,0.002811505075640026,0.06331522739657054,0.06331543256335635,0.0,-0.00020039279931415247
1626110018.1204321,-0.0009328978730177383,-2.625482345594004e-05,5.65,4.36,1.3521456594389747e-06,-1.2578098903759383e-05,1.3414634466171265,-0.0029296875,0.0146484375,0.0007098702609422239,0.003724340418929846,0.0,0.0,-2.089842017979462,0.0,0.0028115612211741603,0.002811560962121061,0.06331919675048073,0.06331936942203192,0.0,-0.0001878448590027405
1626110018.180432,-0.0008407760283928305,-2.1071429482823182e-05,5.65,4.37,1.3521456594389747e-06,-1.2578098903759383e-05,1.3414634466171265,-0.0029296875,0.0146484375,0.0006158287346639371,0.00279612615282364,0.0,0.0,-2.0898900127809736,0.0,0.0028115770155863837,0.002811576797670877,0.06330485768672968,0.06330500281316208,0.0,-0.00017584927375789296
1626110018.240432,-0.000713349644101757,-1.6213059263835574e-05,5.64,4.37,1.3521456594389747e-06,-1.2578098903759383e-05,1.2804877758026123,-0.00146484375,0.0078125,0.0006158287346639371,0.00279612615282364,0.0,0.0,-2.0898900127809736,0.0,0.0028115770155863837,0.002811576797670877,0.06330485768672968,0.06330500281316208,0.0,-0.00017584927375789296
1626110018.306432,-0.0005338056270846942,-1.1663266266978198e-05,5.64,4.36,1.335854790340818e-06,-1.2426556168065872e-05,1.3414634466171265,-0.00732421875,0.0078125,0.02170483669696727,0.0018909874528286047,0.5,0.0,-2.0899432914876344,0.0,0.00281149752289946,0.0028114973692080743,0.06331188983534329,0.06331199257082777,0.0,-0.00015352973669645583
1626110018.3604321,0.3994274183688995,-7.448860431309392e-06,5.64,4.36,0.02501526102423668,-0.1313101202249527,5.609755992889404,-0.0234375,-0.06298828125,0.04309132433760491,0.0014652513575244784,0.5,0.0,-2.089963920347829,0.0,0.0028114435054619807,0.002811442635718619,0.06330725182720909,0.06330734174793455,0.0,-0.00014304968113579663
1626110018.420432,0.3668096596629466,-3.600289226063605e-06,5.64,4.37,0.0831117108464241,-0.06698409467935562,5.609755992889404,-0.0234375,-0.06298828125,0.06277343018761675,0.001266271225001143,0.5,0.0,-2.0920062572251683,0.0,0.002811464427713837,0.0028114614901183334,0.06331555574580736,0.06331565210235654,0.0,-0.00013166232316011136
1626110018.480432,0.36469953074463113,4.1826990993257977e-07,5.64,4.37,0.17998936772346497,0.0326576791703701,5.609755992889404,-0.0234375,-0.06298828125,0.08236335421318998,-0.00865743861252149,0.5,0.0,-2.0981183369860967,0.0,0.0028115145331971793,0.0028115087835271545,0.06330896750222786,0.06330910187278524,0.0,-0.00013168481329460757
1626110018.540432,0.34541694786609606,2.426622216109573e-07,5.64,4.36,0.17998936772346497,0.0326576791703701,-1.6463414430618286,0.0751953125,-0.27734375,0.08236335421318998,-0.00865743861252149,0.5,0.0,-2.0981183369860967,0.0,0.0028115145331971793,0.0028115087835271545,0.06330896750222786,0.06330910187278524,0.0,-0.00013168481329460757
1626110018.6004322,0.3191750116879133,-9.678773564555602e-06,5.62,4.34,0.3919546604156494,-3.8739843148505315e-05,-0.4878048896789551,0.1982421875,-0.22412109375,0.10402023235112344,-0.002502626513388217,0.5,0.0,-2.100964592419752,0.0,0.002811422624206159,0.0028114091487717843,0.06332400088847726,0.06332436759727346,0.0,-0.00018688155687951946
1626110018.660432,-0.10159591969004873,-1.893099058110569e-05,5.62,4.34,0.48364460468292236,0.05014009773731232,-0.4878048896789551,0.1982421875,-0.22412109375,0.11030426363186926,0.01570403576765027,0.5,0.0,-2.099454854830329,0.0,0.002815654578371742,0.0028156432927460527,0.06331894550178722,0.06331947616747638,0.0,-0.00018921113295853378
1626110018.720777,-0.09503416594926145,-1.814104272916446e-05,5.62,4.31,0.5269843935966492,0.01576501876115799,-1.3414634466171265,-0.22998046875,-0.279296875,0.1221280387835563,0.014840225655858226,0.5,0.0,-2.0971050273354637,0.0,0.002812434050027274,0.0028124206550520173,0.06332045516318678,0.0633211678699282,0.0,-0.00014433721942877544
1626110018.780777,-0.10352381542014584,2.628478396653281e-07,5.62,4.31,0.5267658233642578,-3.486658897600137e-05,-1.3414634466171265,-0.22998046875,-0.279296875,0.13805373892655737,0.021399405162479186,0.5,0.0,-2.094702370277933,0.0,0.0028117582901532124,0.00281174312248681,0.06330409115652713,0.06330499700650175,0.0,-7.152170999315938e-05
1626110018.8407772,-0.11046331758959725,2.8333494780169304e-05,5.62,4.26,0.5267658233642578,-3.486658897600137e-05,0.9146341681480408,-0.03076171875,-0.08349609375,0.13805373892655737,0.021399405162479186,0.5,0.0,-2.094702370277933,0.0,0.0028117582901532124,0.00281174312248681,0.06330409115652713,0.06330499700650175,0.0,-7.152170999315938e-05
1626110018.910777,-0.154828340420905,5.187475781059559e-05,5.62,4.22,0.5060936212539673,-0.032722171396017075,3.2317073345184326,0.21728515625,-0.12353515625,0.17056757914963797,0.017892310783794007,0.5,0.0,-2.091977336626867,0.0,0.002811575682287355,0.0028115494767482086,0.06330432795711029,0.06330576327975841,0.0,3.6095052258776366e-05
1626110018.960777,-0.14411598575551096,6.826532634060926e-05,5.62,4.22,0.4940066635608673,-0.0005194278783164918,1.0365853309631348,-0.5458984375,0.189453125,0.18437246903867394,0.013421438940799281,0.5,0.0,-2.0913024562953977,0.0,0.002811616698475745,0.0028115865254995575,0.06328595164807092,0.06328772385848709,0.0,6.999468383989637e-05
1626110019.020777,-0.15600941175708757,8.009897184060932e-05,5.61,4.18,0.509819507598877,0.015403938479721546,1.0365853309631348,-0.5458984375,0.189453125,0.1957393332898702,0.012593002878662515,0.5,0.0,-2.09100045981539,0.0,0.002811636505698086,0.002811597386059876,0.06329005830320121,0.0632922595931922,0.0,8.671392509784315e-05
1626110019.0807772,-0.17612774674141954,8.529155662215738e-05,5.61,4.18,0.5036097764968872,0.0152865806594491,1.0365853309631348,-0.5458984375,0.189453125,0.20562503356881748,0.015409526446137651,0.5,0.0,-2.0903777867522413,0.0,0.0028116141011939864,0.002811571186987959,0.06328004615340166,0.06328272729915739,0.0,9.082741083301179e-05
1626110019.140777,-0.18433198936233372,8.568968396412015e-05,5.61,4.14,0.5036097764968872,0.0152865806594491,0.3658536672592163,0.4033203125,-0.43798828125,0.20562503356881748,0.015409526446137651,0.5,0.0,-2.0903777867522413,0.0,0.0028116141011939864,0.002811571186987959,0.06328004615340166,0.06328272729915739,0.0,9.082741083301179e-05
1626110019.2027771,-0.21410970967019824,8.673559614170664e-05,5.6,4.1,0.5018971562385559,0.0005608440260402858,-2.9268293380737305,0.60498046875,0.09228515625,0.2213554838002697,0.014622075583045716,0.5,0.0,-2.0889053121116685,0.0,0.0028114612524156855,0.0028114088458336536,0.06329920012948898,0.06330302048309816,0.0,0.00010906973043516166
1626110019.260777,-0.20629875322988764,9.006510963134313e-05,5.6,4.1,0.48803722858428955,0.0005145512986928225,-2.9268293380737305,0.60498046875,0.09228515625,0.2277407227294758,0.017063526439363663,0.0,0.0,-2.088871568660277,0.0,0.002811433622833896,0.002811381999946385,0.06329441629018115,0.06329880573921487,0.0,0.00010738899000619503
1626110019.3207772,-0.2040031307364281,8.802686000912888e-05,5.57,4.04,0.5080345273017883,1.991842145798728e-05,1.1585365533828735,-0.36767578125,0.12744140625,0.23290690395961017,0.015996084887241968,0.0,0.0,-2.088731703830998,0.0,0.0028115230173393615,0.002811461739220247,0.06330334486631052,0.06330834182128169,0.0,9.897199987457625e-05
1626110019.3807771,-0.2208146598224595,8.357935757129635e-05,5.57,4.04,0.4547424912452698,-0.0005519708502106369,2.5,0.01513671875,0.10986328125,0.23763218810780123,0.018768833503940437,0.0,0.0,-2.0879976734991468,0.0,0.0028115604596246346,0.002811500219963267,0.06328966683424393,0.06329524815953967,0.0,9.388358251395567e-05
1626110019.440777,-0.219136188373436,8.039235773220414e-05,5.56,4.0,0.4547424912452698,-0.0005519708502106369,2.5,0.01513671875,0.10986328125,0.23763218810780123,0.018768833503940437,0.0,0.0,-2.0879976734991468,0.0,0.0028115604596246346,0.002811500219963267,0.06328966683424393,0.06329524815953967,0.0,9.388358251395567e-05
1626110019.500777,-0.2184355344668934,7.625782199468759e-05,5.54,3.95,0.27826055884361267,-0.000582448672503233,0.9146341681480408,0.1396484375,0.07666015625,0.2401758468948443,0.00871556896548447,0.0,0.0,-2.0889228800354784,0.0,0.0028115588383388294,0.0028114887672228083,0.06329517995611571,0.06330199380991892,0.0,7.04219271775466e-05
1626110019.560777,-0.23568987458779753,6.921705158602642e-05,5.54,3.95,0.16668522357940674,-0.016371257603168488,0.9146341681480408,0.1396484375,0.07666015625,0.2347981440351223,0.005184541484705846,0.0,0.0,-2.0892451042504683,0.0,0.0028115184861735648,0.002811454463050306,0.0632843739465832,0.06329173798058814,0.0,5.7864012147547806e-05
1626110019.6207771,-0.22780784607749746,6.337138121714456e-05,5.53,3.91,0.07949557900428772,4.500316208577715e-05,1.585365891456604,-0.03759765625,0.1103515625,0.22363310137919434,0.004850924475915087,0.0,0.0,-2.0893777298887213,0.0,0.0028115896863153992,0.0028115200596450737,0.06329164983462504,0.06329954058757352,0.0,5.454157354539562e-05
1626110019.680777,-0.2337233069828435,6.0818937744881624e-05,5.53,3.91,0.0038984522689133883,-0.0011006140848621726,0.6097561120986938,0.0087890625,0.14697265625,0.2075468046594179,0.009016855213353292,0.0,0.0,-2.089080475888861,0.0,0.002811602428989132,0.0028115400142313973,0.06328031342650745,0.063288621917526,0.0,5.650309499951333e-05
1626110019.740777,-0.2197609552696709,6.0026936209800586e-05,5.53,3.9,4.53266784461448e-06,4.21643526351545e-05,0.6097561120986938,0.0087890625,0.14697265625,0.2075468046594179,0.009016855213353292,0.0,0.0,-2.089080475888861,0.0,0.002811602428989132,0.0028115400142313973,0.06328031342650745,0.063288621917526,0.0,5.650309499951333e-05
1626110019.806777,-0.18722517690146714,5.989956102839613e-05,5.53,3.87,4.644585715141147e-06,4.3205447582295164e-05,1.7682926654815674,-0.0029296875,-0.03857421875,0.1658132205943783,0.006699818594861513,0.0,0.0,-2.089339486550814,0.0,0.002811517031751913,0.002811467884384693,0.0632924968480283,0.06330129078334147,0.0,6.483692211964932e-05
1626110019.8607771,-0.18986608296658652,5.995833237230332e-05,5.53,3.87,4.587944204104133e-06,4.267855183570646e-05,1.1585365533828735,0.001953125,0.03369140625,0.14549183553648348,0.006758695883445691,0.0,0.0,-2.08936758654508,0.0,0.002811557890643933,0.0028115190917641477,0.06327800727215394,0.06328677263837329,0.0,6.918488253256842e-05
1626110019.920777,-0.16469870625227467,5.9976468941077975e-05,5.53,3.87,4.587944204104133e-06,4.267855183570646e-05,1.1585365533828735,0.001953125,0.03369140625,0.12689001413787548,0.0063318245142707985,0.0,0.0,-2.089398846497867,0.0,0.0028115777445851193,0.0028115437292103133,0.0632843408403322,0.06329294052945825,0.0,7.238327501536816e-05
1626110019.980777,-0.14912193302805546,5.960572920421032e-05,5.52,3.86,4.587944204104133e-06,4.267855183570646e-05,1.2804877758026123,0.00244140625,0.00439453125,0.11042166404821797,0.003523824880185138,0.0,0.0,-2.0895157790811663,0.0,0.0028115515486091753,0.0028115240252683978,0.06327919609861522,0.06328750010615175,0.0,7.323819487256145e-05
1626110020.040777,-0.12839538846033227,5.8468598937958484e-05,5.52,3.86,4.587944204104133e-06,4.267855183570646e-05,1.2804877758026123,0.00244140625,0.00439453125,0.11042166404821797,0.003523824880185138,0.0,0.0,-2.0895157790811663,1.0,0.0028115515486091753,0.0028115240252683978,0.06327919609861522,0.06328750010615175,0.0,7.323819487256145e-05
1626110020.1007771,-0.1069265389271853,5.81926288569991e-05,5.52,3.84,0.0009492575190961361,0.43410682678222656,1.2804877758026123,-0.00634765625,0.00439453125,0.08320781724119551,0.08928103001871228,0.0,0.0,-2.08696510810001,1.0,0.002811384083121962,0.002811365173457418,0.06329998858465749,0.06330744736572588,0.0,9.149891346744155e-05
1626110020.160777,-0.09844983191737855,6.248420320802223e-05,5.52,3.84,0.0041311150416731834,0.3629465103149414,-17.987804412841797,-0.0517578125,-0.0625,0.07215000884409431,0.1327825805289918,0.0,0.0,-2.078455369057894,1.0,0.0028113701439673486,0.002811354780151403,0.06329310557841968,0.06330005718684041,0.0,8.933019941514813e-05
1626110020.220777,-0.08196320660131488,6.040994262747603e-05,5.52,3.84,0.007355775684118271,0.6508232951164246,-17.987804412841797,-0.0517578125,-0.0625,0.062416377170579844,0.18017719715928746,0.0,0.0,-2.0605617635219784,1.0,0.002811466152210321,0.0028114519912243495,0.06330143410285934,0.06330786427750841,0.0,6.69025855474247e-05
1626110020.280777,-0.0741378214276854,5.1136741149591345e-05,5.52,3.84,0.009391507133841515,0.8238679766654968,-43.353660583496094,0.025390625,-0.00341796875,0.05379817715630774,0.2304258671044,0.0,0.0,-2.032684191393593,1.0,0.002811491253117057,0.0028114787909183135,0.06328895156861047,0.06329485626803828,0.0,1.786923818573008e-05
1626110020.3407772,-0.06260182480095615,3.263403405154559e-05,5.52,3.83,0.012407351285219193,0.9067041277885437,-43.353660583496094,0.025390625,-0.00341796875,0.05379817715630774,0.2304258671044,0.0,0.0,-2.032684191393593,1.0,0.002811491253117057,0.0028114787909183135,0.06328895156861047,0.06329485626803828,0.0,1.786923818573008e-05
1626110020.400777,-0.052739314799692,1.946063659621172e-06,5.53,3.84,0.010399308055639267,0.9013960361480713,-50.97561264038086,-0.029296875,-0.037109375,0.039344297956781474,0.20850285284447242,0.0,0.0,-1.9475676377383413,1.0,0.0028113830600708127,0.0028113722023474156,0.0632931849334018,0.0632980879730502,0.0,-0.00017534427697259484
1626110020.460777,-0.04763969959143716,-3.6334393363146135e-05,5.53,3.84,0.010506866499781609,0.921972393989563,-52.5,-0.04443359375,-0.017578125,0.03345711943682499,0.20042034992581312,0.0,0.0,-1.8966652379982505,1.0,0.0028112282177955197,0.0028112181781490735,0.06328773818379319,0.06329217507196305,0.0,-0.0002821242674404071
1626110020.520777,-0.03931346316424462,-7.309187302948647e-05,5.53,3.83,0.010892385616898537,0.9557514786720276,-52.5,-0.04443359375,-0.017578125,0.02831921717123148,0.19363120315850368,0.0,0.0,-1.8436393902850488,1.0,0.002811190847175832,0.002811181136045308,0.06330397399375114,0.06330797526397963,0.0,-0.00038119203670650755
1626110020.5807772,-0.03460846035575639,-0.00010614556563804726,5.53,3.83,0.010843494907021523,0.9574116468429565,-53.47561264038086,0.078125,0.09130859375,0.023818250079434878,0.18853006053446195,0.0,0.0,-1.7887401868701398,1.0,0.0028111046553847578,0.002811095558964672,0.06330700854204478,0.06331060335967313,0.0,-0.00047553072710321357
1626110020.640777,-0.028846026699584866,-0.0001368832659445293,5.54,3.84,0.008756856434047222,0.9394569396972656,-53.47561264038086,0.078125,0.09130859375,0.023818250079434878,0.18853006053446195,0.0,0.0,-1.7887401868701398,1.0,0.0028111046553847578,0.002811095558964672,0.06330700854204478,0.06331060335967313,0.0,-0.00047553072710321357
1626110020.7027771,-0.019916602468001556,-0.0001618498257276069,5.43,3.9,0.010450989939272404,0.911397397518158,-53.78049087524414,-0.06982421875,0.00732421875,0.016493216561809115,0.1817663834983447,0.0,0.0,-1.6761822101729176,1.0,0.0028108966107264956,0.0028108887976668875,0.06335230114288833,0.06335517741790418,0.0,-0.0006263745541894996
1626110020.760777,-0.02069764824713629,-0.0001830166123839302,5.43,3.9,0.01082300953567028,0.9551915526390076,-54.8780517578125,0.0390625,0.05029296875,0.01355391234262711,0.18025352870531608,0.0,0.0,-1.6189375789661542,0.0,0.0028108487128822406,0.00281084164620295,0.06336086397774407,0.06336342454169727,0.0,-0.0006837542145718805
1626110020.8207772,-0.016454595811438936,-0.00019907481211212406,5.36,3.91,0.012588373385369778,0.939974844455719,-54.8780517578125,0.0390625,0.05029296875,0.01098910048256286,0.17949852155552934,0.0,0.0,-1.5616290986963384,0.0,0.002810939875321642,0.0028109334584095706,0.0633821682507066,0.063384441893753,0.0,-0.0007331354767328225
1626110020.8807771,-0.014198269296607186,-0.00021196510025236334,5.36,3.91,0.0067213671281933784,0.41701915860176086,-37.07316970825195,0.013671875,0.10107421875,0.00871400723904258,0.17971387164181546,0.0,0.0,-1.504190104515041,0.0,0.0028109696576627324,0.0028109639435249002,0.06339288231975185,0.06339489544424644,0.0,-0.0007803705171004155
1626110020.940777,-0.011474909736635341,-0.00022395771376491525,5.39,3.89,0.0030683225486427546,-0.06590782105922699,-37.07316970825195,0.013671875,0.10107421875,0.00871400723904258,0.17971387164181546,0.0,0.0,-1.504190104515041,0.0,0.0028109696576627324,0.0028109639435249002,0.06339288231975185,0.06339489544424644,0.0,-0.0007803705171004155
1626110021.000777,-0.008708719582959486,-0.00022147941607344052,5.41,3.86,3.970993930124678e-06,-3.6939483834430575e-05,3.47560977935791,-0.04052734375,-0.0234375,0.0055508936411302326,0.17043722200650202,0.0,0.0,-1.4355427752673307,0.0,0.0028110490235193587,0.0028110446644270233,0.06342139865407091,0.06342296461383323,0.0,-0.0007641467885180612
1626110021.060777,-0.007281357968330011,-0.0002073592117538475,5.41,3.86,3.970993930124678e-06,-3.6939483834430575e-05,1.3414634466171265,0.00244140625,0.02685546875,0.004583585164805184,0.141352105619226,0.0,0.0,-1.4276479657837244,0.0,0.0028112597746003743,0.002811256004037986,0.06341092665735384,0.06341230156576026,0.0,-0.0007234729265751293
1626110021.1207771,-0.0055743379676626206,-0.00018749480351769882,5.42,3.83,3.970993930124678e-06,-3.6939483834430575e-05,1.3414634466171265,0.00244140625,0.02685546875,0.003862853526139659,0.13240868419707363,0.0,0.0,-1.4241599059320313,0.0,0.0028115373425813433,0.002811534059085024,0.06341232155912095,0.0634135258592661,0.0,-0.0006795208908473755
1626110021.180777,-0.004747435324109589,-0.00016719391449738838,5.42,3.83,3.970993930124678e-06,-3.6939483834430575e-05,1.3414634466171265,0.005859375,0.017578125,0.0032904597456289604,0.1160016221222969,0.0,0.0,-1.4231123701500465,0.0,0.002824259864525778,0.0028242569899498277,0.0634062835903258,0.06340733335046433,0.0,-0.0006378877562737038
1626110021.241804,-0.003902566446120626,-0.00014812737793630813,5.44,3.83,3.970993930124678e-06,-3.6939483834430575e-05,1.3414634466171265,0.005859375,0.017578125,0.0032904597456289604,0.1160016221222969,0.0,0.0,-1.4231123701500465,0.0,0.002824259864525778,0.0028242569899498277,0.0634062835903258,0.06340733335046433,0.0,-0.0006378877562737038
1626110021.3078039,-0.0028262278849261148,-0.00013128050228239501,5.44,3.83,3.970993930124678e-06,-3.6939483834430575e-05,1.402438998222351,-0.00537109375,0.00439453125,0.002438044949797862,0.05086724926098699,0.0,0.0,-1.4250390484927242,0.0,0.0028122426057628626,0.0028122404446965436,0.06338466968851823,0.06338546380948443,0.0,-0.0005660207041730186
1626110021.361804,-0.0028898410046671475,-0.00011516944028794665,5.44,3.83,3.970993930124678e-06,-3.6939483834430575e-05,1.3414634466171265,-0.0107421875,-0.0009765625,0.002108763295931638,0.026509733464644473,0.0,0.0,-1.4260576631198472,0.0,0.0028118298635337177,0.0028118279876643945,0.06336039934461522,0.06336108708589532,0.0,-0.0005329056880120944
1626110021.421804,-0.0024327875639092995,-0.00010038719927610747,5.44,3.81,3.970993930124678e-06,-3.6939483834430575e-05,1.3414634466171265,-0.0107421875,-0.0009765625,0.0018246169787176202,0.02481685994350174,0.0,0.0,-1.4262850328768064,-1.0,0.0028117447724053993,0.0028117431457395587,0.0633579258743095,0.06335851998797071,0.0,-0.0005008511884482677
1626110021.481804,-0.002166701893888042,-8.643701662527578e-05,5.44,3.81,0.005071875639259815,-0.09866490960121155,1.6463414430618286,-0.00439453125,0.017578125,0.0015806509369614202,-0.03464599576510059,0.0,0.0,-1.427734725327608,-1.0,0.002811691201941183,0.002811689796120566,0.06334470843665876,0.0633452200407925,0.0,-0.00047058468220384346
1626110021.5418038,-0.001848872634597102,-7.344362253405943e-05,5.46,3.82,0.005326563958078623,-0.6435163617134094,1.6463414430618286,-0.00439453125,0.017578125,0.0015806509369614202,-0.03464599576510059,0.0,0.0,-1.427734725327608,-1.0,0.002811691201941183,0.002811689796120566,0.06334470843665876,0.0633452200407925,0.0,-0.00047058468220384346
1626110021.601804,-0.0015086800975465465,-6.124892449407786e-05,5.46,3.83,0.006710205692797899,-0.4124802350997925,30.121952056884766,0.017578125,-0.13525390625,0.0015099489538725345,-0.10630485206994658,0.0,0.0,-1.4494599775715857,0.0,0.0028114973933413157,0.0028114963505623558,0.06335153079904379,0.06335190682933603,0.0,-0.0004174868020998706
1626110021.661804,-0.0013723830779205405,-5.1025414773138626e-05,5.46,3.83,0.0067541636526584625,-0.5928710699081421,35.914634704589844,0.013671875,0.1025390625,0.0017414226624785185,-0.1300509739640717,0.0,0.0,-1.4731857676530118,0.0,0.002811454975387492,0.0028114540753473296,0.06333916177874632,0.06333948250731669,0.0,-0.000401070037946214
1626110021.721804,-0.0013287214415138697,-4.372531957769883e-05,5.48,3.86,0.007391089573502541,-0.6604714393615723,35.914634704589844,0.013671875,0.1025390625,0.0019428876970488899,-0.12342080642127372,0.0,0.0,-1.5012808760616585,0.0,0.00281151556214374,0.002811514784297424,0.06334325080318814,0.06334352354049598,0.0,-0.0003868712084677424
1626110021.7818038,-0.0016289511227292183,-3.743799391460257e-05,5.48,3.86,0.002756930887699127,-0.09917110949754715,12.560976028442383,-0.02734375,-0.06689453125,0.002236209692066685,-0.11827690222081538,0.0,0.0,-1.5368886176786563,0.0,0.0028115089363870893,0.0028115082658585594,0.06332765508711237,0.06332788618142911,0.0,-0.00038204342410026206
1626110021.841804,-0.0017426735402468023,-3.469307865325936e-05,5.5,3.89,0.001811786787584424,0.016853829845786095,12.560976028442383,-0.02734375,-0.06689453125,0.002236209692066685,-0.11827690222081538,0.0,0.0,-1.5368886176786563,0.0,0.0028115089363870893,0.0028115082658585594,0.06332765508711237,0.06332788618142911,0.0,-0.00038204342410026206
1626110021.901804,-0.0020665258423850337,-2.629410002093474e-05,5.51,3.9,0.00037196060293354094,0.03269985690712929,0.3658536672592163,-0.03125,0.00830078125,0.0020440081174655286,-0.10634409242844366,0.0,0.0,-1.5696429646371,0.0,0.002811442112194627,0.0028114416191425827,0.06332567876914569,0.06332584322530059,0.0,-0.00033361118150065005
1626110021.961804,-0.0022907995538048865,-1.5529505047829733e-05,5.51,3.9,2.2571903173229657e-06,2.0997118554078043e-05,1.4634146690368652,0.0009765625,-0.001953125,0.0018038538279019267,-0.04593436755984612,0.0,0.0,-1.5704381211627116,0.0,0.00281145272383703,0.0028114523080812045,0.06331177598394581,0.06331191408910554,0.0,-0.00030849180765804015
1626110022.0218039,-0.002018354457232363,-6.0630264531826274e-06,5.51,3.89,2.2296635506791063e-06,2.0741055777762085e-05,1.4634146690368652,0.0009765625,-0.001953125,0.001577995872012337,-0.04305586041446441,0.5,0.0,-1.5714404570144107,0.0,0.002811539182185875,0.002811538832280243,0.063316418790691,0.06331653452344192,0.0,-0.00028615947913736327
1626110022.081804,-0.0018471030983975994,2.2547081543792754e-06,5.51,3.89,0.003575450275093317,0.033260002732276917,1.2804877758026123,0.00927734375,-0.01025390625,0.024705247845997584,-0.02088621923833603,0.5,0.0,-1.5710251031310238,0.0,0.0028115636638513875,0.0028115630958324804,0.06330511033788101,0.06330520779843529,0.0,-0.00026420487837161143
1626110022.141804,0.3927918045291717,1.016701749568952e-05,5.51,3.89,0.055760327726602554,0.19599130749702454,1.2804877758026123,0.00927734375,-0.01025390625,0.024705247845997584,-0.02088621923833603,0.5,0.0,-1.5710251031310238,0.0,0.0028115636638513875,0.0028115630958324804,0.06330511033788101,0.06330520779843529,0.0,-0.00026420487837161143
1626110022.203804,0.3632236269349603,1.7181807669988578e-05,5.51,3.89,0.23373226821422577,-0.04958358034491539,3.5975611209869385,-0.06201171875,-0.37548828125,0.06613557993394407,-0.010578016144889601,0.5,0.0,-1.5653925850615193,0.0,0.002811435305517281,0.0028114288155059288,0.06332002871398595,0.06332012813328411,0.0,-0.00022443265883798145
1626110022.2618039,0.3620558609113987,2.3967633289593352e-05,5.51,3.89,0.23373226821422577,-0.04958358034491539,3.841463565826416,0.01318359375,-0.13232421875,0.08700204041282736,0.003455043178039789,0.5,0.0,-1.5597335159061478,0.0,0.0028114104684479973,0.002811399362403332,0.0633130780611568,0.06331321834153374,0.0,-0.00018194098117744854
1626110022.3218038,0.3343992697520942,3.907492778317537e-05,5.5,3.88,0.34148266911506653,-0.03321536257863045,3.841463565826416,0.01318359375,-0.13232421875,0.11065282680761215,0.0032849406653914226,0.5,0.0,-1.558857984249941,0.0,0.0028114958575929713,0.0028114754180686725,0.06332003094146671,0.06332026504874988,0.0,-0.0001267822169167789
1626110022.381804,0.3318057252028747,5.848415544342252e-05,5.5,3.88,0.4413110315799713,-0.01581062562763691,2.5609755516052246,-0.3408203125,-0.2255859375,0.11706976377255254,0.010260419038436969,0.5,0.0,-1.5593030604186116,0.0,0.002811531784137603,0.0028115001102479763,0.06331694735321251,0.06331734168240222,0.0,-9.334103687852945e-05
1626110022.441804,-0.11046503585505747,6.941302338908038e-05,5.46,3.86,0.5201532244682312,-0.03367350623011589,2.5609755516052246,-0.3408203125,-0.2255859375,0.11706976377255254,0.010260419038436969,0.5,0.0,-1.5593030604186116,0.0,0.002811531784137603,0.0028115001102479763,0.06331694735321251,0.06331734168240222,0.0,-9.334103687852945e-05
1626110022.5018039,-0.10523035693026644,6.879111144698875e-05,5.42,3.85,0.5352683663368225,-0.016860129311680794,5.060975551605225,0.00634765625,-0.11376953125,0.138190171944672,-0.0022779565101724098,0.5,0.0,-1.561850596475765,0.0,0.0028114812995766415,0.0028114467974916972,0.06332370864904374,0.06332453271233546,0.0,-0.00010829374146746445
1626110022.5618038,-0.11752776906145246,6.1341877501112e-05,5.42,3.85,0.5352683663368225,-0.016860129311680794,3.0487804412841797,0.17138671875,0.0478515625,0.15389266514327904,-0.008109187687070748,0.5,0.0,-1.5632927760177453,0.0,0.0028114895985534797,0.0028114523134510202,0.06331031163416506,0.06331137823748596,0.0,-0.00014094359815441492
1626110022.621804,-0.12417810459212743,4.8641682498475755e-05,5.4,3.83,0.4974570870399475,0.016691960394382477,3.0487804412841797,0.17138671875,0.0478515625,0.16963389097652254,-0.007710086884512042,0.5,0.0,-1.5653483237194912,0.0,0.002811582966364811,0.0028115307578485066,0.06331459768134876,0.06331596346612912,0.0,-0.00019750820301876965
1626110022.681804,-0.14471156769817664,2.7499600879124156e-05,5.4,3.83,0.5039702653884888,-0.016315223649144173,0.12195122241973877,0.412109375,-0.46728515625,0.18367328108196165,-0.006868265561576724,0.5,0.0,-1.566034046557767,0.0,0.002811618175606697,0.0028115572655401594,0.06330030458974362,0.06330201626308778,0.0,-0.00023587454888726795
1626110022.741804,-0.15707005245750308,1.3620980894898948e-05,5.38,3.78,0.510256290435791,-0.017139645293354988,0.12195122241973877,0.412109375,-0.46728515625,0.18367328108196165,-0.006868265561576724,0.5,0.0,-1.566034046557767,0.0,0.002811618175606697,0.0028115572655401594,0.06330030458974362,0.06330201626308778,0.0,-0.00023587454888726795
1626110022.8078039,-0.19526950080677555,9.551267323504211e-06,5.38,3.76,0.4956951141357422,0.016392407938838005,2.682926893234253,0.3134765625,-0.01513671875,0.2053035072199264,-0.0022315794001498065,0.5,0.0,-1.567110721516051,0.0,0.002811570326635108,0.0028114848601716756,0.06330725697857534,0.06330988760645542,0.0,-0.0002535239070117592
1626110022.861804,-0.18612760869947303,7.84715900566952e-06,5.38,3.76,0.4956951141357422,0.016392407938838005,0.24390244483947754,0.21875,-0.49365234375,0.2138964527318269,-0.008134983202488877,0.5,0.0,-1.567281906477924,0.0,0.0028116257114353706,0.002811535969276819,0.0632905507673046,0.06329369264325047,0.0,-0.0002514257126890695
1626110022.921804,-0.19154342823486128,8.991020653321446e-06,5.35,3.72,0.5122904181480408,-0.03360383212566376,0.24390244483947754,0.21875,-0.49365234375,0.2208896077793167,-0.007603052152884848,0.5,0.0,-1.5668955435976943,0.0,0.0028116647863945503,0.0028115579913958804,0.06329493108502554,0.06329865819647534,0.0,-0.0002329837274625457
1626110022.981804,-0.20660812393468733,1.5985589551718235e-05,5.35,3.72,0.4982733726501465,-0.03435433655977249,-1.0365853309631348,-0.1376953125,0.43115234375,0.22738186362495097,-0.007786397490405741,0.5,0.0,-1.5672991563799439,0.0,0.002811648752068595,0.002811536864516092,0.06328807053328298,0.06329240397470604,0.0,-0.0002110298095918017
1626110023.0418038,-0.21060013320496468,2.3975177311845318e-05,5.31,3.69,0.5060368180274963,-0.03325106203556061,-1.0365853309631348,-0.1376953125,0.43115234375,0.22738186362495097,-0.007786397490405741,0.5,0.0,-1.5672991563799439,0.0,0.002811648752068595,0.002811536864516092,0.06328807053328298,0.06329240397470604,0.0,-0.0002110298095918017
1626110023.101804,-0.20715775389003932,2.880310193703179e-05,5.29,3.66,0.40983355045318604,-0.016934363171458244,-1.585365891456604,0.3056640625,-0.17529296875,0.2376490389907538,-7.392678077288945e-05,0.5,0.0,-1.567859577044877,0.0,0.002811498642781685,0.0028113744725306593,0.06330606770182762,0.0633116800627089,0.0,-0.00017912394279595432
1626110023.161804,-0.22601634304692939,3.4912861517738924e-05,5.29,3.66,0.3275986611843109,-0.016524214297533035,-0.4878048896789551,-0.09326171875,-0.0458984375,0.24176576803765246,0.004575649592141837,0.5,0.0,-1.5677265845203425,0.0,0.0028114819768543546,0.002811363584653257,0.06329803444291199,0.0633042288757049,0.0,-0.0001587903955004116
1626110023.221804,-0.2209880881267201,4.17293793597962e-05,5.24,3.63,0.3275986611843109,-0.016524214297533035,-0.4878048896789551,-0.09326171875,-0.0458984375,0.2427605869184152,0.004257731236536612,0.5,0.0,-1.5682692450855142,0.0,0.0028115999555546425,0.0028114610150696785,0.06330531077710098,0.06331210932487699,0.0,-0.00014945792097417808
1626110023.2818038,-0.2360657000738179,4.432996091166666e-05,5.2,3.59,0.22395703196525574,-0.03324152156710625,2.682926893234253,0.13134765625,0.212890625,0.23974525724598367,0.01237171049940042,0.0,0.0,-1.5683762195713342,0.0,0.002811642155999715,0.0028115078718967098,0.06329131578342177,0.0632986735478701,0.0,-0.00013935035903093145
1626110023.341804,-0.23229032590759485,4.697123329767807e-05,5.2,3.59,0.11589180678129196,-0.016377955675125122,2.682926893234253,0.13134765625,0.212890625,0.23140864530845592,-0.004568817185092131,0.0,0.0,-1.5692649292569334,0.0,0.0028116895106074695,0.0028115555567098122,0.06328122792961424,0.06328910901092699,0.0,-0.00013399252092584067
1626110023.401804,-0.22558231957296915,4.815020159230528e-05,5.2,3.59,0.03097560442984104,0.03382014483213425,1.7073171138763428,-0.04052734375,0.142578125,0.2172960689829608,-0.0042952758503561886,0.0,0.0,-1.569535209818238,0.0,0.002811636066794731,0.002811501989492082,0.06328901507351752,0.06329738847104423,0.0,-0.00012101990333995446
1626110023.461804,-0.2314925166696359,5.1855045494053326e-05,5.16,3.58,3.308656687295297e-06,-3.077820292674005e-05,1.7073171138763428,-0.04052734375,0.142578125,0.19869946326732701,-0.003623406642105352,0.0,0.0,-1.5692594661157548,0.0,0.002811575007428731,0.002811463071511818,0.06327637647970985,0.0632850907562983,0.0,-0.00011109374035053446
1626110023.5218039,-0.21201804877676206,5.43190114709858e-05,5.13,3.57,3.3495041407149984e-06,-3.115817889920436e-05,-0.12195122241973877,-0.00439453125,0.0166015625,0.1772312998882866,-0.0033984730784449996,0.0,0.0,-1.569324850415807,0.0,0.002811612268404071,0.0028115051397111547,0.06328349234226771,0.06329242676558501,0.0,-0.00010101400452492538
1626110023.581804,-0.20220977760764355,5.67724780925407e-05,5.13,3.57,3.3495041407149984e-06,-3.115817889920436e-05,-0.12195122241973877,-0.00439453125,0.0166015625,0.15610405539189448,-0.0013243870527318417,0.0,0.0,-1.5692763591937406,0.0,0.0028115961444840137,0.0028115084420963594,0.06327517613159095,0.0632841588993971,0.0,-9.067029598229833e-05
1626110023.641804,-0.17794231127791704,5.923667458795886e-05,5.11,3.56,3.2687933071429143e-06,-3.0407380108954385e-05,0.792682945728302,-0.00390625,0.0078125,0.15610405539189448,-0.0013243870527318417,0.0,0.0,-1.5692763591937406,0.0,0.0028115961444840137,0.0028115084420963594,0.06327517613159095,0.0632841588993971,0.0,-9.067029598229833e-05
1626110023.7708569,-0.14003547861841745,6.382559260146434e-05,5.11,3.56,3.308656687295297e-06,-3.077820292674005e-05,1.3414634466171265,-0.0068359375,0.01025390625,0.0876753581713103,0.000903145213279185,0.0,0.0,-1.5691765977703187,0.0,0.002816373256258566,0.0028163324573795712,0.06330763518801766,0.06331543624712274,0.0,-5.2153884196567675e-05
1626110023.8308568,-0.11660239564229441,6.580644315922206e-05,5.1,3.55,3.308656687295297e-06,-3.077820292674005e-05,1.402438998222351,-0.01171875,0.0205078125,0.07606880398020514,0.0009652482138156934,0.0,0.0,-1.5691721590624745,0.0,0.0028125082902246985,0.0028124741862647976,0.06330434332942458,0.06331164486679607,0.0,-4.3955840060991224e-05
1626110023.890857,-0.10377694250975865,6.751554246303466e-05,5.1,3.55,3.308656687295297e-06,-3.077820292674005e-05,1.402438998222351,-0.01171875,0.0205078125,0.07606880398020514,0.0009652482138156934,0.0,0.0,-1.5691721590624745,0.0,0.0028125082902246985,0.0028124741862647976,0.06330434332942458,0.06331164486679607,0.0,-4.3955840060991224e-05
1626110023.950857,-0.08914546480552386,6.902041777935721e-05,5.11,3.54,3.308656687295297e-06,-3.077820292674005e-05,1.5243902206420898,-0.0087890625,0.01171875,0.06597272791989849,0.0012884666975681877,0.0,0.0,-1.5691610487304606,0.0,0.0028116622204349016,0.0028116338508699283,0.06330438339564569,0.06331115576146558,0.0,-3.619097310389082e-05
1626110024.0108569,-0.07400245893469722,7.033273415106179e-05,5.1,3.55,3.3495041407149984e-06,-3.115817889920436e-05,1.2804877758026123,-0.00537109375,0.0009765625,0.049613783360520886,0.0010036790258474578,0.0,0.0,-1.5691668182370357,0.0,0.002811451624315674,0.0028114309559773634,0.06330291182993647,0.06330861615039249,0.0,-2.2301226111503085e-05
1626110024.0708568,-0.06774624633318505,7.141338917093859e-05,5.1,3.55,3.2687933071429143e-06,-3.0407380108954385e-05,1.2804877758026123,-0.00537109375,0.0009765625,0.04300403184740231,0.0009401203858383634,0.0,0.0,-1.569170327610015,0.0,0.002811528678615614,0.002811510017349975,0.0633083381535719,0.06331353039662635,0.0,-1.605039894780068e-05
1626110024.130857,-0.05655891222676984,7.229217325223735e-05,5.08,3.54,3.308656687295297e-06,-3.077820292674005e-05,1.402438998222351,-0.0068359375,0.0078125,0.03730217620027908,0.001006343300171485,0.0,0.0,-1.5691682315197726,0.0,0.002811556475821546,0.0028115404109897756,0.06329498798716553,0.06329969130239965,0.0,-1.0195722704838778e-05
1626110024.190857,-0.050949438263590954,7.298775476807933e-05,5.08,3.54,3.308656687295297e-06,-3.077820292674005e-05,1.2804877758026123,-0.0107421875,0.0087890625,0.035586275946021616,0.0008786863674841742,0.0,0.0,-1.5691292238388952,0.0,0.00553764416721666,0.005537584534455206,0.06668473687221571,0.06668954277341545,0.0,-6.8248303695732116e-06
1626110024.2508569,-0.0432163808615246,7.35213779160472e-05,5.09,3.55,3.308656687295297e-06,-3.077820292674005e-05,1.2804877758026123,-0.0107421875,0.0087890625,0.03234922801305746,0.00086429083416556,0.0,0.0,-1.5691732988480407,0.0,0.002811593067187673,0.002811579114737296,0.06328055597072064,0.06328479932637635,0.0,-4.782833666957344e-06
1626110024.2968569,-0.03730217620227619,7.351800788701401e-05,5.09,3.55,3.308656687295297e-06,-3.077820292674005e-05,1.2804877758026123,-0.0107421875,0.0087890625,0.028038554357570786,0.0008099505818630567,0.0,0.0,-1.5691765780718192,0.0,0.002811557234445515,0.002811544858456484,0.06328670093941674,0.06329051815099007,0.0,2.398955842475408e-07
1626110024.3108568,-0.03659096734128416,7.388439491111012e-05,5.09,3.55,3.3495041407149984e-06,-3.115817889920436e-05,1.4634146690368652,-0.0078125,0.0126953125,0.024322134275910727,0.0010792139624300466,0.0,0.0,-1.5691672444072722,0.0,0.0028115138121743545,0.0028115031352249176,0.06327321106283557,0.06327663241111563,0.0,4.951029571097399e-06
1626110024.370857,-0.03322052401998573,7.409684962745281e-05,5.09,3.55,3.308656687295297e-06,-3.077820292674005e-05,1.2195122241973877,-0.01123046875,0.01708984375,0.021081056311832345,0.0010110186884301807,0.0,0.0,-1.5691686504960811,0.0,0.002811524842158023,0.0028115153492503427,0.06328029137451421,0.06328335007600285,0.0,9.282716383674057e-06
1626110024.430857,-0.027952914577726445,7.418830938822701e-05,5.09,3.55,3.308656687295297e-06,-3.077820292674005e-05,1.2195122241973877,-0.01123046875,0.01708984375,0.018282781969851544,0.0010121964369162605,0.0,0.0,-1.5691681013919043,0.0,0.0028115073540349996,0.002811499050340606,0.06327572569816152,0.06327845192933206,0.0,1.3299518072638733e-05
1626110024.490857,-0.024977329732360755,7.41414052850678e-05,5.09,3.55,3.308656687295297e-06,-3.077820292674005e-05,1.402438998222351,-0.00390625,0.00244140625,0.018282781969851544,0.0010121964369162605,0.0,0.0,-1.5691681013919043,0.0,0.0028115073540349996,0.002811499050340606,0.06327572569816152,0.06327845192933206,0.0,1.3299518072638733e-05
1626110024.5508568,-0.021354052287473425,7.39801508842654e-05,5.08,3.55,3.308656687295297e-06,-3.077820292674005e-05,1.402438998222351,-0.00390625,0.00244140625,0.01584827592874244,0.0011796273404153749,0.0,0.0,-1.5691633402091625,0.0,0.002811456681965285,0.0028114494013473665,0.06328267886107086,0.06328510267624102,0.0,1.7019602225286337e-05
1626110024.610857,-0.017715012090471778,7.371278095218911e-05,5.08,3.54,3.3495041407149984e-06,-3.115817889920436e-05,1.3414634466171265,-0.0078125,0.0048828125,0.011914554435724332,0.0011013208530558647,0.0,0.0,-1.5691641386775779,0.0,0.0028113473055533973,0.002811341751233611,0.06329083777544103,0.06329273825495546,0.0,2.3581800346464656e-05
1626110024.670857,-0.016275399399041945,7.334047638998727e-05,5.08,3.54,3.308656687295297e-06,-3.077820292674005e-05,1.2804877758026123,0.0009765625,0.017578125,0.010264674452550226,0.0010269924862605112,0.5,0.0,-1.5691605424422355,0.0,0.0031511657614971445,0.00315115969220421,0.06373500687986199,0.06373668554670893,0.0,2.689999611385252e-05
1626110024.730857,-0.013530275982522405,7.287859065955678e-05,5.08,3.55,0.0018125902861356735,0.01686130464076996,1.2804877758026123,0.0009765625,0.017578125,0.030321200855582587,0.0009770803118025132,0.5,0.0,-1.5689793767374793,0.0,0.002811437158992795,0.002811432858585001,0.06330372985983514,0.06330520461165742,0.0,2.8980146500072172e-05
1626110024.7968569,-0.010326634694045194,7.23300297239061e-05,5.08,3.55,0.04366359859704971,0.0010624504648149014,5.731707572937012,-0.03369140625,-0.2998046875,0.030321200855582587,0.0009770803118025132,0.5,0.0,-1.5689793767374793,0.0,0.002811437158992795,0.002811432858585001,0.06330372985983514,0.06330520461165742,0.0,2.8980146500072172e-05
1626110024.850857,0.39138382806857563,7.165835501942012e-05,5.07,3.57,0.12536410987377167,-0.000583448214456439,5.731707572937012,-0.03369140625,-0.2998046875,0.05198884578674183,0.0009931782473829036,0.5,0.0,-1.568154649580521,0.0,0.0028114109475880786,0.0028114047964271937,0.06330029234516661,0.06330159328792236,0.0,3.2155867735272437e-05
1626110024.910857,0.36044643682663585,7.124762517010217e-05,5.07,3.57,0.23905999958515167,-2.330341885681264e-05,1.1585365533828735,-0.1396484375,-0.23828125,0.053711799507587074,0.004173982011320952,0.0,0.0,-1.566889585239018,0.0,0.0028114646952869886,0.002811456062935324,0.06329583029515416,0.06329689467955443,0.0,5.015269844598021e-05
1626110024.970857,-0.051478065345510235,7.195536311108648e-05,5.08,3.56,0.2665325701236725,5.212802534515504e-06,3.353658676147461,0.134765625,-0.13037109375,0.06130095357122056,0.003936559025042822,0.0,0.0,-1.566420761472539,0.0,0.002811532333267682,0.0028115233323655333,0.06330114792731312,0.06330213031754059,0.0,6.202939344801753e-05
1626110025.0308568,-0.04619225329215228,7.466869027386428e-05,5.05,3.55,0.1918746829032898,-0.015623542480170727,3.353658676147461,0.134765625,-0.13037109375,0.06876690133619827,0.0031726283277012245,0.0,0.0,-1.566982671291317,0.0,0.002811552071693601,0.002811542083755681,0.06329081575970101,0.06329173559229406,0.0,6.350289504173534e-05
1626110025.0908568,-0.049736703966465554,7.73332080053533e-05,5.05,3.55,0.09092055261135101,0.033111125230789185,1.8292683362960815,0.05126953125,0.228515625,0.06876690133619827,0.0031726283277012245,0.0,0.0,-1.566982671291317,0.0,0.002811552071693601,0.002811542083755681,0.06329081575970101,0.06329173559229406,0.0,6.350289504173534e-05
1626110025.150857,-0.05612457692898555,7.611264576822435e-05,5.05,3.56,0.003958349581807852,-0.0005434305057860911,1.8292683362960815,0.05126953125,0.228515625,0.07188888790833628,-0.001417131686736811,0.0,0.0,-1.5673733959158453,0.0,0.002924250711309669,0.002924237695583901,0.06344284608851608,0.06344372864448929,0.0,6.101125527901449e-05
1626110025.212857,-0.07203296024131285,7.346606018088219e-05,5.05,3.55,3.0332028018165147e-06,2.8215839847689494e-05,-0.6097561120986938,-0.0146484375,0.0595703125,0.06347060486909796,0.0004145407078928019,0.0,0.0,-1.56751849263738,0.0,0.002811485244033112,0.0028114732357600904,0.06329497754575095,0.06329583217599874,0.0,6.123843764324094e-05
1626110025.2968569,-0.06936956182511432,7.179781050169087e-05,5.05,3.55,4.143300429859664e-06,-3.854233000311069e-05,1.402438998222351,-0.01708984375,-0.06591796875,0.05654691538195553,0.0003975090127615197,0.0,0.0,-1.5673466706076025,-1.0,0.002811534782236853,0.0028115235761015473,0.06330058217313163,0.06330143109737255,0.0,6.10704418040142e-05
1626110025.3308568,-0.06822567890833364,7.039368057670837e-05,5.03,3.55,4.143300429859664e-06,-3.854233000311069e-05,1.402438998222351,-0.01708984375,-0.06591796875,0.04976362271776886,-0.04955921702085271,0.0,0.0,-1.568340974754328,-1.0,0.0028115128477637806,0.0028115037026605278,0.06329823471235563,0.06329907197230017,0.0,5.7819283880393134e-05
1626110025.390857,-0.06461604360730493,6.877262956847911e-05,5.03,3.55,0.009398406371474266,-0.38393867015838623,4.390244007110596,-0.0185546875,-0.0126953125,0.04976362271776886,-0.04955921702085271,0.0,0.0,-1.568340974754328,-1.0,0.0028115128477637806,0.0028115037026605278,0.06329823471235563,0.06329907197230017,0.0,5.7819283880393134e-05
1626110025.450857,-0.05723727139496654,6.606557051036704e-05,5.02,3.54,0.014543088153004646,-0.41193610429763794,4.390244007110596,-0.0185546875,-0.0126953125,0.043296104167528396,-0.06626200992630586,0.0,0.0,-1.5769344789768085,-1.0,0.0028114587131047144,0.0028114516031479304,0.06329787566631573,0.0632986908658772,0.0,7.118519677485562e-05
1626110025.5108569,-0.0483615456757335,6.930181097363142e-05,5.04,3.54,0.010935978963971138,-0.6175190806388855,25.731708526611328,0.0126953125,0.06982421875,0.03348260792689898,-0.1656421047833995,0.0,0.0,-1.6239297010958267,-1.0,0.002811400062029895,0.002811395571122221,0.06329755421994346,0.0632982958629197,0.0,9.75949077151251e-05
1626110025.5708568,-0.044346166955010306,7.299118453723253e-05,5.04,3.54,0.015592625364661217,-0.8506456613540649,46.76829528808594,-0.01513671875,0.00732421875,0.029810902760493706,-0.1581976021121542,0.0,0.0,-1.6626492909903055,-1.0,0.002811444849039276,0.002811440778125755,0.06330517192713943,0.06330586715524036,0.0,0.00010762772718161513
1626110025.630857,-0.03718457671070021,7.517553492370955e-05,5.04,3.54,0.011966108344495296,-0.8734434247016907,46.76829528808594,-0.01513671875,0.00732421875,0.026713381970006573,-0.15282857261603172,0.0,0.0,-1.7095968353016966,-1.0,0.0028113912149371582,0.002811387845728501,0.06329635861493538,0.06329700435606031,0.0,0.00011768783574253167
1626110025.690857,-0.03409396359933779,7.657646607766476e-05,5.04,3.54,0.012208795174956322,-0.9061405062675476,50.4878044128418,-0.01953125,0.02783203125,0.025484566297482806,-0.14579845769269953,0.0,0.0,-1.7163035649117375,-1.0,0.005536593700722172,0.005536580414580158,0.06668626655458612,0.06668692302992436,0.0,0.00012127145646413628
1626110025.7508569,-0.029644432422515125,7.790479183524804e-05,5.05,3.56,0.010833929292857647,-0.9562952518463135,50.4878044128418,-0.01953125,0.02783203125,0.02398397127640288,-0.14901526417250166,0.0,0.0,-1.7606635969338098,-1.0,0.0028113308381852394,0.0028113280050664873,0.06328911823955144,0.06328971377584416,0.0,0.00012934888837500048
1626110025.7968569,-0.026713381970006573,7.790479183524804e-05,5.05,3.56,0.010833929292857647,-0.9562952518463135,52.43902587890625,-0.0302734375,-0.04541015625,0.02155693937646762,-0.14654468789130187,0.0,0.0,-1.8150497639695264,-1.0,0.0028112108918569665,0.002811208404138725,0.06330461232742461,0.0633051592951882,0.0,0.00013656030291126016
1626110025.8108568,-0.025904185270151037,7.973410770577672e-05,5.07,3.59,0.013030635192990303,-0.9732260704040527,52.43902587890625,-0.0302734375,-0.04541015625,0.019398826149723283,-0.14553296468144775,0.0,0.0,-1.8710129487911542,-1.0,0.002811072920908318,0.0028110709211005692,0.063302944603732,0.06330344440361614,0.0,0.0001436605018359096
1626110025.870857,-0.024347267383078738,7.98457015887976e-05,5.07,3.59,0.008942978456616402,-0.9515497088432312,53.47561264038086,0.02880859375,0.037109375,0.017500362274994075,-0.14531010622705287,0.0,0.0,-1.9273831445719223,-1.0,0.002811044231296393,0.0028110425085989873,0.06332257953796594,0.06332303499235549,0.0,0.00014206742442657443
1626110025.930857,-0.021234617080022014,8.003173357713474e-05,5.07,3.56,0.009142091497778893,-0.9732386469841003,53.47561264038086,0.02880859375,0.037109375,0.015867328645906318,-0.146274298816185,0.0,0.0,-1.9848032393732156,-1.0,0.002810990500072425,0.002810989109632664,0.0633312733163826,0.06333168710376914,0.0,0.0001339265959953058
1626110025.990857,-0.019668959223806074,7.705293547665849e-05,5.07,3.56,0.008660463616251945,-0.9280534386634827,54.085365295410156,0.02685546875,-0.00537109375,0.015867328645906318,-0.146274298816185,0.0,0.0,-1.9848032393732156,-1.0,0.002810990500072425,0.002810989109632664,0.0633312733163826,0.06333168710376914,0.0,0.0001339265959953058
1626110026.0508568,-0.017473626074098452,7.188584683640801e-05,5.07,3.56,0.008389550261199474,-0.9067137241363525,54.085365295410156,0.02685546875,-0.00537109375,0.014430648052453698,-0.14773449595571098,0.0,0.0,-2.0415046527597798,-1.0,0.0028109382057864086,0.002810937092343537,0.06335111249087357,0.06335148770613641,0.0,0.00012165611909255335
1626110026.110857,-0.01512592550927894,6.538128918751933e-05,5.08,3.57,0.010889667086303234,-0.9557767510414124,53.658538818359375,0.0380859375,0.08203125,0.01222549660390051,-0.15253475250914164,0.0,0.0,-2.154046487119189,-1.0,0.0028108488529694805,0.0028108482082473667,0.06338301071578414,0.06338331762775909,0.0,7.059488635092778e-05
1626110026.170857,-0.014564998530341183,5.619886982144687e-05,5.08,3.57,0.014975120313465595,-0.9686495065689087,53.59756088256836,-0.171875,0.0439453125,0.011509505917737476,-0.15527054251539793,0.0,0.0,-2.210690466764578,-1.0,0.003106229496269163,0.003106228924000444,0.06378462878220054,0.0637849078675333,0.0,2.3252906167871683e-05
1626110026.230857,-0.012715995683966985,4.346828551835357e-05,5.09,3.55,0.010828501544892788,-0.9563457369804382,53.59756088256836,-0.171875,0.0439453125,0.010943883595976988,-0.1602125189528349,0.0,0.0,-2.26736286169154,-1.0,0.002801485178601213,0.002801484829725715,0.06340275745835514,0.06340300914052148,0.0,-1.6476927884571034e-05
1626110026.293361,-0.011578980285322761,2.503977135763925e-05,5.09,3.55,0.016665617004036903,-0.9394122958183289,53.414634704589844,0.17529296875,-0.05810546875,0.010943883595976988,-0.1602125189528349,0.0,0.0,-2.26736286169154,-1.0,0.002801485178601213,0.002801484829725715,0.06340275745835514,0.06340300914052148,0.0,-1.6476927884571034e-05
1626110026.3473608,-0.011488945693932178,9.906834959209531e-06,5.11,3.54,0.008235725574195385,-0.8836957812309265,53.414634704589844,0.17529296875,-0.05810546875,0.010398083315654618,-0.16464968829114823,0.0,0.0,-2.3249261508408137,-1.0,0.002808955061380494,0.0028089548430845854,0.06341508323901894,0.06341531059938575,0.0,-5.569337705297547e-05
1626110026.407361,-0.010357974711907546,-4.707408056430487e-06,5.12,3.54,0.001062412397004664,-0.2806020677089691,43.658538818359375,-0.0341796875,-0.044921875,0.009048467882568993,-0.1690947110989643,0.0,0.0,-2.4230430026682943,-1.0,0.002810969657326368,0.002810969635905052,0.06342697032173482,0.06342715645494942,0.0,-7.937622808121552e-05
1626110026.467361,-0.01039295519493551,-1.3021715608673257e-05,5.12,3.54,0.003163147484883666,0.06514891982078552,-2.195122003555298,0.01416015625,0.02734375,0.008251008454676178,-0.16222467865497456,0.0,0.0,-2.4425827195431435,-1.0,0.0028112421016477217,0.0028112421419359884,0.06343568884153566,0.06343585766618791,0.0,-7.61278180033384e-05
1626110026.527361,-0.009514417175946109,-1.3077872638580333e-05,5.15,3.55,0.0003121169575024396,0.033256541937589645,-2.195122003555298,0.01416015625,0.02734375,0.0072877580198065775,-0.19892887476446067,0.0,0.0,-2.451881195274406,-1.0,0.002811462822992686,0.002811462893905514,0.06342328505036855,0.06342343832875331,0.0,-7.025943432231103e-05
1626110026.5873609,-0.009142048444801638,-1.165451410637492e-05,5.15,3.55,3.686643140099477e-06,3.429435673751868e-05,0.4878048896789551,0.00537109375,-0.00732421875,0.0072877580198065775,-0.19892887476446067,0.0,0.0,-2.451881195274406,-1.0,0.002811462822992686,0.002811462893905514,0.06342328505036855,0.06342343832875331,0.0,-7.025943432231103e-05
1626110026.647361,-0.008276654655678728,-8.898903279733675e-06,5.17,3.55,3.732157210833975e-06,3.471774107310921e-05,0.4878048896789551,0.00537109375,-0.00732421875,0.006338173813859416,-0.22244989263445242,0.0,0.0,-2.455605293896054,-1.0,0.002924352710060118,0.0029243527944804904,0.06356841454755521,0.0635685541906558,0.0,-6.586549579593472e-05
1626110026.709361,-0.006350893183773034,-7.162241462299212e-06,5.1,3.56,0.0025740424171090126,-0.049580659717321396,1.4634146690368652,-0.00537109375,0.02294921875,0.004806022182906462,-0.29879710014099653,0.0,0.0,-2.4605167294784,-1.0,0.002811695221890304,0.0028116952925672936,0.06340070182155627,0.0634008178051991,0.0,-6.562184572983545e-05
1626110026.793361,-0.005521229844558157,-6.6082594642338635e-06,5.1,3.56,0.007762670982629061,-0.32916459441185,16.280488967895508,0.03125,0.12939453125,0.004459124318978072,-0.33500634817561553,0.0,0.0,-2.4699409986346006,-1.0,0.0028117524798253104,0.002811752544961019,0.0633961891874018,0.0633962952717475,0.0,-6.458895287468326e-05
1626110026.8273609,-0.00552028470242192,-6.570615467598778e-06,5.1,3.55,0.011845529079437256,-0.6925600171089172,16.280488967895508,0.03125,0.12939453125,0.004477834901420301,-0.3711434301858415,0.0,0.0,-2.494771277820334,-1.0,0.0028117154113977273,0.0028117154747718193,0.06338443536920751,0.06338453264463986,0.0,-6.804776599506971e-05
1626110026.887361,-0.004827534718492957,-6.020509064992997e-06,5.1,3.55,0.010514388792216778,-0.9231078028678894,48.59756088256836,-0.013671875,0.044921875,0.004477834901420301,-0.3711434301858415,0.0,0.0,-2.494771277820334,-1.0,0.0028117154113977273,0.0028117154747718193,0.06338443536920751,0.06338453264463986,0.0,-6.804776599506971e-05
1626110026.947361,-0.004310240653955253,-7.235189562524252e-06,5.08,3.57,0.007172121200710535,-0.9776227474212646,48.59756088256836,-0.013671875,0.044921875,0.004564616454447958,-0.35252906081482116,0.0,0.0,-2.5345055180982086,0.0,0.0028116155187573417,0.0028116155861549683,0.06337625479444621,0.06337634429577378,0.0,-7.84934089038683e-05
1626110027.007361,-0.0041060196977826865,-1.0985666296911817e-05,5.07,3.57,0.0008845893898978829,-0.2637590765953064,56.95122146606445,0.05322265625,-0.02099609375,0.004672510623589792,-0.32497285838300993,0.0,0.0,-2.6368523169605296,0.0,0.002811323974715379,0.002811324067266783,0.06336994112405932,0.06337001786173392,0.0,-0.00011026200823185248
1626110027.0673609,-0.00443384528591458,-1.692408012028119e-05,5.07,3.57,0.0008845893898978829,-0.2637590765953064,15.304878234863281,-0.05517578125,-0.0537109375,0.004475210518879096,-0.31010425610356684,0.0,0.0,-2.6746132115676904,0.0,0.0028113070157616436,0.00281130712535429,0.0633784653947191,0.06337853697384829,0.0,-0.00010833184672950756
1626110027.127361,-0.004359375896902782,-2.205827891900365e-05,5.07,3.58,0.003169610630720854,0.06731133908033371,15.304878234863281,-0.05517578125,-0.0537109375,0.004155528756691593,-0.29127706357729477,0.0,0.0,-2.6904941630656167,0.0,0.0028113193768687797,0.0028113194940128563,0.06336868058692034,0.06336874764389373,0.0,-0.00010106291318760986
1626110027.187361,-0.00464198670324664,-2.085156484200993e-05,5.07,3.58,0.0004385855863802135,0.03328542038798332,0.18292683362960815,-0.0224609375,0.0107421875,0.003964374418031696,-0.2778783175416054,0.0,0.0,-2.7032765667325522,0.0,0.005537174059905522,0.0055371745459011764,0.0667602386561396,0.06676030945397439,0.0,-0.00010187869535267865
1626110027.247361,-0.004396896709740824,-1.7734393422118678e-05,5.07,3.56,3.725811893673381e-06,3.4658714866964146e-05,0.18292683362960815,-0.0224609375,0.0107421875,0.0037196832897864675,-0.27090501826564545,0.0,0.0,-2.695735051269743,0.0,0.0028114884311126586,0.0028114885471620093,0.06335400838726536,0.06335407147119833,0.0,-9.360431276018442e-05
1626110027.293361,-0.004155528756691593,-1.7734393422118678e-05,5.07,3.56,3.725811893673381e-06,3.4658714866964146e-05,1.2195122241973877,-0.00634765625,0.00390625,0.0032787590205995486,-0.25079131361561613,0.0,0.0,-2.6974087593211196,0.0,0.0028115796779712484,0.0028115797891643405,0.06335637121999874,0.06335643082268402,0.0,-8.852729684730746e-05
1626110027.307361,-0.0040337554228107985,-1.461795756577255e-05,5.09,3.58,3.725811893673381e-06,3.4658714866964146e-05,1.2195122241973877,-0.00634765625,0.00390625,0.00287007955064101,-0.19053067740666677,0.0,0.0,-2.6958911041220937,0.0,0.0028115994257970622,0.0028115995279291628,0.06333745524311446,0.06333751172311934,0.0,-8.410174442432749e-05
1626110027.367361,-0.0037997171443742853,-1.2412374619055058e-05,5.09,3.58,3.725811893673381e-06,3.4658714866964146e-05,1.2804877758026123,0.00634765625,0.0,0.0024998022213110925,-0.17618260181575773,0.0,0.0,-2.6955327104117335,0.0,0.0028116383250103337,0.0028116384204513642,0.06333852387035074,0.06333857757974623,0.0,-8.063292460211176e-05
1626110027.427361,-0.0032592066645226363,-1.0626059557904216e-05,5.12,3.59,3.725811893673381e-06,3.4658714866964146e-05,1.2804877758026123,0.00634765625,0.0,0.0021737072718226664,-0.13489832700079157,0.0,0.0,-2.6938067007677278,0.0,0.002811625597549671,0.0028116256858456866,0.06332800439511056,0.06332805560611134,0.0,-7.6691087868059e-05
1626110027.487361,-0.00294289008119208,-9.067827675086032e-06,5.12,3.59,3.725811893673381e-06,3.4658714866964146e-05,1.402438998222351,-0.0068359375,-0.00048828125,0.0021737072718226664,-0.13489832700079157,0.0,0.0,-2.6938067007677278,1.0,0.002811625597549671,0.0028116256858456866,0.06332800439511056,0.06332805560611134,0.0,-7.6691087868059e-05
1626110027.547361,-0.0025300486515344783,-7.467638197951259e-06,5.12,3.59,0.0039511616341769695,0.1814100742340088,1.402438998222351,-0.0068359375,-0.00048828125,0.0018869407501225588,-0.021300918173294756,0.0,0.0,-2.689949956909498,1.0,0.002811569693518454,0.002811569775613853,0.06332935949155365,0.06332940846034048,0.0,-7.227787376588377e-05
1626110027.607361,-0.002105198994335378,-5.764005308249557e-06,5.13,3.58,0.004124542232602835,0.5438074469566345,-24.573171615600586,-0.03173828125,-0.0390625,0.001088523606299686,0.09729341850400854,0.0,0.0,-2.6621907126899207,1.0,0.002811525616240858,0.002811525687509888,0.06332561471454869,0.06332565981420452,0.0,-7.363886061956944e-05
1626110027.6893609,-0.0016047860464706498,-4.198638419045954e-06,5.13,3.58,0.004124542232602835,0.5438074469566345,-24.573171615600586,-0.03173828125,-0.0390625,0.0006388137166416402,0.15196811721340794,0.0,0.0,-2.633548599303536,0.0,0.0031512503878786784,0.0031512504677751775,0.0637656053844828,0.0637656492417602,0.0,-7.904466236039334e-05
1626110027.727361,-0.0017240970835937428,-5.872611482283039e-06,5.15,3.57,0.007985023781657219,0.7005556225776672,-24.573171615600586,-0.03173828125,-0.0390625,0.0001684684950749452,0.14591073771006366,0.0,0.0,-2.6009939907519084,0.0,0.0028114519780156654,0.0028114520353389426,0.06333225448829881,0.06333229636908197,0.0,-8.990311081274018e-05
1626110027.793361,-0.0006426697621822301,-7.57329132370601e-06,5.15,3.57,0.0034509894903749228,0.29695335030555725,-29.63414764404297,0.0478515625,0.0302734375,0.0001684684950749452,0.14591073771006366,0.0,0.0,-2.6009939907519084,0.0,0.0028114519780156654,0.0028114520353389426,0.06333225448829881,0.06333229636908197,0.0,-8.990311081274018e-05
1626110027.8473608,-0.000799002790757244,-1.1230204532717602e-05,5.14,3.57,0.0008696045260876417,-0.08281991630792618,-29.63414764404297,0.0478515625,0.0302734375,-0.00024969679478552037,0.13964080132567905,0.0,0.0,-2.569786219848576,0.0,0.0028113555573477823,0.002811355607202466,0.0633289629197945,0.06332900337535695,0.0,-9.940096801945568e-05
1626110027.907361,-0.00030992653553441843,-1.4282566180342748e-05,5.12,3.56,0.002125389873981476,-0.01638888567686081,3.47560977935791,-0.0302734375,-0.0234375,-0.0004176818201563903,0.11683655366652371,0.0,0.0,-2.550000079659329,0.0,0.0028114000853377346,0.0028114001234567296,0.06332588825952515,0.0633259261743491,0.0,-8.690148631482358e-05
1626110027.967361,0.00019264767918599548,-1.1961313993546678e-05,5.12,3.56,1.817871861931053e-07,-1.6910436215766822e-06,1.7682926654815674,-0.009765625,0.00244140625,-0.000373152181728895,0.10946312805346643,0.0,0.0,-2.5479382116045928,0.0,0.00281152162073949,0.002811521655801074,0.06332992018372571,0.06332995696060573,0.0,-8.006469182461878e-05
1626110028.027361,0.0003579419631036699,-9.011459384566708e-06,5.1,3.58,1.817871861931053e-07,-1.6910436215766822e-06,1.402438998222351,-0.0029296875,0.0068359375,-0.0003289176342198126,0.09774772367710528,0.5,0.0,-2.547379108102354,0.0,0.0028115723726816165,0.002811572405592325,0.06331744712045136,0.0633174828188153,0.0,-7.426939513264397e-05
1626110028.0873609,0.0004248404757660506,-6.305265457241424e-06,5.1,3.58,1.817871861931053e-07,-1.6910436215766822e-06,1.402438998222351,-0.0029296875,0.0068359375,0.01648205467510258,0.04534109148634604,0.5,0.0,-2.5468049075871626,0.0,0.005289406418431981,0.005289406532086065,0.06640830802812842,0.06640834650554507,0.0,-7.456714503157547e-05
1626110028.147361,0.0003745568546564367,-4.040375220635008e-06,5.12,3.58,0.022880423814058304,-0.11500909179449081,1.4634146690368652,-0.0087890625,-0.0703125,0.02301780351853742,0.04436003367755616,0.5,0.0,-2.5490663550507286,0.0,0.0028116207727842046,0.0028116208306435183,0.06329865655210311,0.06329869135312181,0.0,-6.970289247272637e-05
1626110028.1893609,0.40026313225765914,-4.0581393487001195e-06,5.12,3.58,0.08412184566259384,-0.06673908233642578,1.4634146690368652,-0.0087890625,-0.0703125,0.054324392787767954,0.015623630820088177,0.5,0.0,-2.551815974613359,0.0,0.004317712495509217,0.004317716181043724,0.06520391990761432,0.06520396050043457,0.0,-6.385452314218548e-05
1626110028.207361,0.38665779538745204,-2.185983586560376e-06,5.12,3.58,0.17960740625858307,0.0664699375629425,1.4634146690368652,-0.0087890625,-0.0703125,0.06638187694735861,0.01474550116579469,0.5,0.0,-2.558253394492809,0.0,0.002811568073407578,0.0028115703407897855,0.06328703314726762,0.06328709177436673,0.0,-7.413506530767223e-05
1626110028.293361,0.36411406109350347,1.1421946350800545e-07,5.12,3.58,0.2879124879837036,0.016883207485079765,-4.512195110321045,0.14013671875,-0.087890625,0.08973844118367916,0.013700296330071735,0.5,0.0,-2.5600011443158746,0.0,0.002811557054004941,0.0028115620262804462,0.06329278372616763,0.06329289804426033,0.0,-0.00010628743325719009
1626110028.3273609,0.35651668989689883,-3.671935121098314e-06,5.13,3.58,0.2879124879837036,0.016883207485079765,-4.512195110321045,0.14013671875,-0.087890625,0.09548249250940566,0.012216856334415943,0.5,0.0,-2.558769996175446,0.0,0.0028115122185516346,0.0028115207528279455,0.06329135574803856,0.06329157549851655,0.0,-0.00012102147941398116
1626110028.387361,0.3478294993585638,-1.5474791087595968e-05,5.13,3.58,0.39096298813819885,0.03228400647640228,-1.2804877758026123,0.03515625,-0.28271484375,0.09548249250940566,0.012216856334415943,0.5,0.0,-2.558769996175446,0.0,0.0028115122185516346,0.0028115207528279455,0.06329135574803856,0.06329157549851655,0.0,-0.00012102147941398116
1626110028.447361,-0.09040718118253667,-2.062491503897151e-05,5.17,3.56,0.4918730556964874,0.015793105587363243,-1.2804877758026123,0.03515625,-0.28271484375,0.10290236470926245,0.022229773501385896,0.5,0.0,-2.556594799806154,0.0,0.0028114501081209576,0.0028114582153862494,0.06329210806540689,0.06329246387456444,0.0,-0.0001034117372007452
1626110028.507361,-0.08550564376193792,-1.399566896714899e-05,5.19,3.54,0.5310600399971008,0.016313232481479645,1.2804877758026123,0.462890625,-0.076171875,0.1326661851343601,0.018341022053347252,0.5,0.0,-2.553585520836164,0.0,0.0028114173963665464,0.0028114274602779868,0.06329311395115911,0.06329379888557847,0.0,-8.018579372116862e-06
1626110028.5673609,-0.09588418359160474,5.014771321443781e-06,5.21,3.52,0.5253463983535767,0.0005279759643599391,1.2804877758026123,0.462890625,-0.076171875,0.14973498753840025,0.008719904619212324,0.5,0.0,-2.552917224772925,0.0,0.002924219118356226,0.0029242349783512524,0.06344493516504654,0.06344584067595668,0.0,2.753353106893813e-05
1626110028.627361,-0.10269707869225383,1.9516986193291436e-05,5.21,3.52,0.5253463983535767,0.0005279759643599391,-1.4634146690368652,-0.39697265625,0.25341796875,0.16658832858200043,0.008222872144525033,0.5,0.0,-2.5522406492573486,0.0,0.0028114172887557017,0.0028114356387399023,0.0633099043337894,0.06331108410623233,0.0,5.50060266808439e-05
1626110028.6893609,-0.15003503952340214,3.103119991335906e-05,5.13,3.5,0.5102633833885193,-0.01707347109913826,-1.4634146690368652,-0.39697265625,0.25341796875,0.15837052762016535,0.010814552603275329,0.5,0.0,-2.551664860396531,0.0,0.00574508719245145,0.005745202575981005,0.06694943348843836,0.06695065542725596,0.0,5.7233574990297934e-05
1626110028.747361,-0.1403401753522396,3.9438881893472275e-05,5.13,3.5,0.49781519174575806,-4.544617695501074e-05,-1.4634146690368652,-0.39697265625,0.25341796875,0.18029576778222559,0.010664805792218577,0.5,0.0,-2.5514738443740357,0.0,0.002851765499564148,0.002851787140929757,0.06335084313085124,0.0633523639473814,0.0,8.011188220270055e-05
1626110028.796691,-0.16658832836525322,3.953137327875246e-05,5.09,3.47,0.4979538023471832,3.8326696085277945e-05,-5.792683124542236,-0.1630859375,0.18115234375,0.1919756946763263,0.009979501745876833,0.5,0.0,-2.551753908601906,0.0,0.0028201803232180316,0.0028202078420451206,0.06332158117426297,0.06332351679506758,0.0,8.091647270026933e-05
1626110028.8106909,-0.14950584838318354,4.684220766818323e-05,5.09,3.47,0.4975818693637848,0.016662413254380226,-0.18292683362960815,0.15087890625,0.08447265625,0.20199385123909938,0.01940512179705727,0.5,0.0,-2.5511402552903313,0.0,0.002813360670677312,0.002813389711445318,0.06330066442675221,0.06330305177869402,0.0,7.248320911751973e-05
1626110028.870691,-0.17202336628945283,4.531467147659831e-05,5.05,3.42,0.49794986844062805,2.0463480723265093e-06,-0.18292683362960815,0.15087890625,0.08447265625,0.2106174446819513,0.018238341860113857,0.5,0.0,-2.5500890239041274,0.0,0.002811947084271448,0.002811982702652389,0.06330475654509574,0.06330767532338626,0.0,7.89106904114622e-05
1626110028.930691,-0.17838040215891215,4.051660696948458e-05,5.05,3.42,0.49794986844062805,2.0463480723265093e-06,-0.18292683362960815,0.15087890625,0.08447265625,0.21836441141090251,0.020177038946381405,0.0,0.0,-2.5495319057334562,0.0,0.0028116418191839725,0.0028116797690783566,0.06329757829623023,0.06330106367654852,0.0,8.231689463122245e-05
1626110028.990691,-0.19436856627909455,4.1461684004585124e-05,5.05,3.42,0.5136200189590454,0.016591576859354973,1.9512195587158203,-0.015625,0.24609375,0.21836441141090251,0.020177038946381405,0.0,0.0,-2.5495319057334562,0.0,0.0028116418191839725,0.0028116797690783566,0.06329757829623023,0.06330106367654852,0.0,8.231689463122245e-05
1626110029.050691,-0.20023531149944077,4.121120745526868e-05,5.06,3.36,0.4486512839794159,0.016310982406139374,-1.402438998222351,-0.06640625,-0.044921875,0.22514973860341858,0.012236422283252711,0.0,0.0,-2.5495776418370197,0.0,0.0028115352540187977,0.0028115760702075426,0.0633018918099806,0.0633059852602296,0.0,7.289871482595936e-05
1626110029.1106908,-0.19839808631556716,3.638998404619979e-05,5.08,3.31,0.2723618447780609,0.01686561293900013,0.9756097793579102,0.1748046875,0.201171875,0.23070889191409027,0.001597437595693535,0.0,0.0,-2.549709071941428,0.0,0.002811504153980046,0.0028115484228481125,0.06330299016938831,0.06330830890298507,0.0,4.962800344759474e-05
1626110029.1926908,-0.22973184937324642,3.237066090051837e-05,5.1,3.27,0.17070047557353973,-0.016385149210691452,0.9756097793579102,0.1748046875,0.201171875,0.2250486757992485,0.002126450934926668,0.0,0.0,-2.549870784239622,0.0,0.003151285039901381,0.0031513433293240507,0.06374432420549482,0.06375028024895854,0.0,3.8212784870871216e-05
1626110029.230691,-0.21933138873985486,2.5784547561995077e-05,5.1,3.27,0.07713174819946289,0.017102699726819992,0.9756097793579102,0.1748046875,0.201171875,0.21644019585663754,0.0020022498978536467,0.0,0.0,-2.54996499724813,0.0,0.0028115074885695706,0.002811554307900114,0.06331113896372714,0.06331764554780073,0.0,3.303312205749637e-05
1626110029.296691,-0.22640712819275147,2.0826958542230697e-05,5.12,3.23,0.07713174819946289,0.017102699726819992,1.7073171138763428,-0.00048828125,0.15625,0.21644019585663754,0.0020022498978536467,0.0,0.0,-2.54996499724813,0.0,0.0028115074885695706,0.002811554307900114,0.06331113896372714,0.06331764554780073,0.0,3.303312205749637e-05
1626110029.3506908,-0.22374611922550472,1.8461703683504836e-05,5.12,3.23,0.0038268996868282557,0.0010655858786776662,1.0365853309631348,-0.00048828125,0.017578125,0.20114469911084756,0.0015935186311546302,0.0,0.0,-2.549823469311192,0.0,0.0028114659857205637,0.002811506748590007,0.06330625358172935,0.0633132253376755,0.0,3.0058623895393548e-05
1626110029.410691,-0.20650581906222423,1.6991861061395044e-05,5.12,3.21,3.3260373584198533e-06,3.093988561886363e-05,1.4634146690368652,-0.00048828125,0.0185546875,0.16091961459982224,0.0036298305963796498,0.0,0.0,-2.5496562103679836,0.0,0.0028114950056959036,0.002811525845887935,0.06329965985921028,0.06330717567419644,0.0,2.855281784332638e-05
1626110029.470691,-0.20391048171857923,1.6028849729683124e-05,5.13,3.19,3.2854759410838597e-06,3.05625690089073e-05,1.4634146690368652,-0.00048828125,0.0185546875,0.14110080540949452,0.0034014451110425874,0.0,0.0,-2.5496392251977316,0.0,0.002811556786406157,0.0028115847983322135,0.06330416520331428,0.06331172922348882,0.0,2.889618452347596e-05
1626110029.530691,-0.17901490029004535,1.58362961450265e-05,5.13,3.19,3.2854759410838597e-06,3.05625690089073e-05,1.4634146690368652,-0.00537109375,0.02490234375,0.12315538024965914,0.0039016733174261635,0.0,0.0,-2.549608301406101,0.0,0.0028115686111165224,0.0028115910470152723,0.06329314461389109,0.06330060811223974,0.0,2.9957734944619704e-05
1626110029.5906909,-0.16465577066967088,1.569744535860905e-05,5.14,3.18,3.2854759410838597e-06,3.05625690089073e-05,1.4634146690368652,-0.00537109375,0.02490234375,0.11798287685264809,0.0033489014044479366,0.0,0.0,-2.5494750467243033,0.0,0.005289338636517516,0.005289417993132231,0.06638337438757685,0.06639103264434783,0.0,3.0508592808710394e-05
1626110029.650691,-0.142078613635933,1.580306926663861e-05,5.14,3.18,3.2854759410838597e-06,3.05625690089073e-05,1.3414634466171265,-0.001953125,0.017578125,0.10718121411524881,0.0032807215647241584,0.0,0.0,-2.549623511614896,1.0,0.00281159564600949,0.002811613465799942,0.06327628213411705,0.06328351509511664,0.0,3.067302518822325e-05
1626110029.6926908,-0.12315538024395778,1.576708715072268e-05,5.14,3.17,3.2854759410838597e-06,3.05625690089073e-05,1.3414634466171265,-0.001953125,0.017578125,0.09065339868930446,0.05155804141066887,0.0,0.0,-2.547535828608398,1.0,0.0043176277176517714,0.004317661312806507,0.06518329598490488,0.06519032435855142,0.0,3.264753049638018e-05
1626110029.710691,-0.12116518874210515,1.5784280043928805e-05,5.14,3.17,0.004504672717303038,0.4010331928730011,-1.7073171138763428,-0.05224609375,-0.31689453125,0.0808197219956359,0.08045811765114917,0.0,0.0,-2.5476035762484774,1.0,0.0028115312640200696,0.002811543666507056,0.0632687130919605,0.06327525055044911,0.0,4.787015046416279e-05
1626110029.796691,-0.09307330481331147,1.6333302585290067e-05,5.14,3.16,0.007063866127282381,0.44038376212120056,-1.7073171138763428,-0.05224609375,-0.31689453125,0.06993537727281318,0.13027804035576437,0.0,0.0,-2.536876380431863,1.0,0.002811521733799875,0.002811532594764273,0.06327628598407098,0.06328240363875226,0.0,3.977046099052778e-05
1626110029.8306909,-0.09313035980788649,2.170963331620719e-05,5.14,3.16,0.005829826463013887,0.6762001514434814,-1.7073171138763428,-0.05224609375,-0.31689453125,0.060297298815543306,0.16935290368739206,0.0,0.0,-2.5178783180395587,1.0,0.0028114709562787306,0.002811479781266851,0.06327670046945386,0.06328237625617412,0.0,3.504647603148454e-06
1626110029.890691,-0.08303903020642653,1.8415343011488952e-05,5.14,3.16,0.005829826463013887,0.6762001514434814,-28.963415145874023,-0.00537109375,-0.0498046875,0.060297298815543306,0.16935290368739206,0.0,0.0,-2.5178783180395587,1.0,0.0028114709562787306,0.002811479781266851,0.06327670046945386,0.06328237625617412,0.0,3.504647603148454e-06
1626110029.950691,-0.07124844615961151,5.313456391284595e-06,5.14,3.14,0.005683690309524536,0.8571540117263794,-47.682926177978516,-0.00048828125,-0.0146484375,0.05178972241780089,0.21548922244191276,0.0,0.0,-2.4883172168124315,1.0,0.002811391066806869,0.0028113979060515413,0.0632797351176255,0.06328496192642848,0.0,-5.441374911275161e-05
1626110030.010691,-0.058845563529641355,-1.5192749039779813e-05,5.14,3.13,0.012807796709239483,0.9509840607643127,-55.79268264770508,0.01953125,0.00146484375,0.037937614837579986,0.19782862488094569,0.0,0.0,-2.401206479506676,1.0,0.0028112302883903364,0.0028112336802425916,0.06328970665193064,0.0632940597103229,0.0,-0.00022686649886593152
1626110030.0706909,-0.05337663294576361,-4.255246156168752e-05,5.15,3.12,0.008707396686077118,0.9399170279502869,-55.79268264770508,0.01953125,0.00146484375,0.03216385430175677,0.1914326958714145,0.0,0.0,-2.3488070468508253,1.0,0.00292389191737107,0.0029238939797734654,0.06344934305549296,0.06345329037755681,0.0,-0.0003326476512265621
1626110030.130691,-0.04408138543177338,-7.449217730637818e-05,5.15,3.12,0.008774228394031525,0.9405006170272827,-56.463417053222656,0.05078125,-0.02978515625,0.027322966844493268,0.1874392785631533,0.0,0.0,-2.294218120478532,1.0,0.0028110442388740798,0.002811044927991695,0.06332461069218939,0.06332816955573678,0.0,-0.00042203690271998506
1626110030.1926908,-0.03222830624247491,-0.00010991540128715907,5.15,3.12,0.008774228394031525,0.9405006170272827,-56.463417053222656,0.05078125,-0.02978515625,0.02606611026541773,0.17881707103422415,0.0,0.0,-2.285992534528824,1.0,0.005534898491560417,0.005534897319740795,0.066714942497303,0.06671857494434945,0.0,-0.0004284202685604335
1626110030.250691,-0.03325859332398434,-0.00013876881111059633,5.15,3.12,0.008808128535747528,0.9515838623046875,-53.59756088256836,0.02197265625,-0.02783203125,0.023054758700436294,0.1844774175028974,0.0,0.0,-2.238250289755119,1.0,0.0028109267731725443,0.002810926363845983,0.06333128360101316,0.06333448192713281,0.0,-0.0005050052704543137
1626110030.296691,-0.027322966844493268,-0.00013876881111059633,5.11,3.11,0.010019538924098015,0.8796865344047546,-53.59756088256836,0.02197265625,-0.02783203125,0.019382034273114725,0.18235024715906772,0.0,0.0,-2.1822923490038764,1.0,0.002810971282352597,0.002810970008156068,0.06335232722333957,0.06335519249188264,0.0,-0.0005709469845832983
1626110030.3106909,-0.027038077844989003,-0.00016471725040675597,5.11,3.11,0.012706552632153034,0.9388754963874817,-53.04878234863281,-0.00830078125,-0.048828125,0.016140484844079837,0.18123932338985146,0.0,0.0,-2.1269482643678677,1.0,0.002810969281903,0.0028109673595851986,0.06335155526106843,0.06335411289940272,0.0,-0.0006336661120177841
1626110030.370691,-0.023896908936671634,-0.00018397821656948251,5.1,3.1,0.00868726521730423,0.9388989210128784,-53.04878234863281,-0.00830078125,-0.048828125,0.013280418841909489,0.18073480802594144,0.0,0.0,-2.0716160929999887,1.0,0.0028110455705840074,0.0028110431941932544,0.06336898559182351,0.06337126260963952,0.0,-0.0006907200103596455
1626110030.430691,-0.01956962849277237,-0.00020186873495378757,5.1,3.1,0.010892979800701141,0.9557459354400635,-53.04878234863281,-0.00830078125,-0.048828125,0.010833876317952178,0.18125225710274348,0.0,0.0,-2.0157643098335503,1.0,0.0028110485970165248,0.0028110459337802023,0.06337393950735086,0.06337596046350372,0.0,-0.0007326616916028236
1626110030.490691,-0.016836027341926723,-0.00021739508096631623,5.12,3.12,0.012934692203998566,0.9510238170623779,-54.817073822021484,0.0068359375,-0.00537109375,0.010833876317952178,0.18125225710274348,0.0,0.0,-2.0157643098335503,1.0,0.0028110485970165248,0.0028110459337802023,0.06337393950735086,0.06337596046350372,0.0,-0.0007326616916028236
1626110030.550691,-0.01370338220430075,-0.0002272728150617197,5.12,3.12,0.012934692203998566,0.9510238170623779,-55.0,-0.02392578125,-0.10107421875,0.008692602912523037,0.18240046249514008,0.0,0.0,-1.9595750746421923,1.0,0.002811027924562996,0.002811025115252579,0.06338920176986916,0.06339099072988265,0.0,-0.0007689964907818576
1626110030.6106908,-0.01075422120126809,-0.00023499692939868845,5.11,3.13,0.010833192616701126,0.9563021063804626,-53.963417053222656,-0.033203125,0.0576171875,0.0050587890776942045,0.1869887117001742,0.0,0.0,-1.8455228737375984,1.0,0.002811017577623914,0.0028110147565951864,0.06341044769149765,0.06341183756655117,0.0,-0.0008385635160083104
1626110030.670691,-0.009206851196997146,-0.00024254159226559492,5.07,3.11,0.007890239357948303,0.8739932775497437,-53.963417053222656,-0.033203125,0.0576171875,0.003570345673353219,0.18886999412232283,0.0,0.0,-1.7870011812256505,1.0,0.0031506107277201037,0.0031506073111339334,0.06386104768568983,0.06386226893754744,0.0,-0.000863667699224511
1626110030.730691,-0.00710669074348564,-0.00024919048581012443,5.07,3.11,0.0034661530517041683,0.29284778237342834,-53.963417053222656,-0.033203125,0.0576171875,0.002296550870848869,0.1931652116431248,0.0,0.0,-1.7317147931115118,1.0,0.0028110554380498067,0.002811052875239796,0.06343569715933733,0.06343676487296095,0.0,-0.000881374202416355
1626110030.796691,-0.003591897207319139,-0.0002520817733634191,5.02,3.05,0.0008901739493012428,-0.06615227460861206,-35.0,0.02685546875,0.08935546875,0.002296550870848869,0.1931652116431248,0.0,0.0,-1.7317147931115118,1.0,0.0028110554380498067,0.002811052875239796,0.06343569715933733,0.06343676487296095,0.0,-0.000881374202416355
1626110030.8506908,-0.003967619548394478,-0.00025339246066920495,5.02,3.05,0.0008901739493012428,-0.06615227460861206,4.45121955871582,-0.03759765625,-0.0009765625,0.001380390058551277,0.19195379007903993,0.0,0.0,-1.689659312107613,1.0,0.0028110340348189104,0.0028110316626843595,0.06343838544900625,0.06343931703195589,0.0,-0.0008660650215513696
1626110030.910691,-0.002467943045212321,-0.00024208658498493685,5.01,3.04,2.504514895917964e-06,-2.3297812731470913e-05,1.7073171138763428,-0.005859375,0.0009765625,0.0005506637003636862,0.1677206972644507,0.0,0.0,-1.6654551894613265,1.0,0.0028114074402379105,0.0028114055287837775,0.06343287958981461,0.06343358191210534,0.0,-0.0007788496145528476
1626110030.970691,-0.0015287963976499468,-0.00022011698682948078,5.02,3.04,0.001017278409563005,0.08389601856470108,1.7073171138763428,-0.005859375,0.0009765625,0.00022327324068112126,0.2399833467033387,0.0,0.0,-1.6569431912615302,1.0,0.0028116249955740507,0.0028116235382035643,0.06342739623655125,0.06342791874727031,0.0,-0.0006910816337729169
1626110031.030691,-0.0009699472367615473,-0.00019891123889751575,5.02,3.04,0.005333647131919861,0.46265068650245667,-12.317073822021484,-0.05322265625,-0.0400390625,0.00022327324068112126,0.2399833467033387,0.0,0.0,-1.6569431912615302,1.0,0.0028116249955740507,0.0028116235382035643,0.06342739623655125,0.06342791874727031,0.0,-0.0006910816337729169
1626110031.0906909,-0.0005806384735376489,-0.0001778799148804153,5.0,3.05,0.008998761884868145,0.7901561260223389,-12.317073822021484,-0.05322265625,-0.0400390625,1.9502810540810215e-05,0.2801894791188348,0.0,0.0,-1.6433424076823673,1.0,0.002811617519370857,0.002811616257605135,0.06340779245292924,0.06340824059983304,0.0,-0.0006519892532107457
1626110031.150691,-0.0003877158021181295,-0.00015818877859313292,5.0,3.05,0.008998761884868145,0.7901561260223389,-45.60975646972656,-0.01416015625,0.0263671875,-0.0003776689995134806,0.30659012817466835,0.0,0.0,-1.6071010241730168,1.0,0.004189030031367159,0.0041890277167598786,0.06515889679375285,0.06515928533087571,0.0,-0.0006322773741321909
1626110031.210691,-0.00028381778220858345,-0.0001404057760186538,4.97,3.03,0.008659317158162594,0.9280641078948975,-51.95122146606445,-0.05908203125,0.08642578125,-0.0013300425455198515,0.288713908526762,0.0,0.0,-1.5203887372712928,1.0,0.0028058950130532712,0.0028058941931790784,0.0633691291983163,0.06336941271117363,0.0,-0.0006077462404029617
1626110031.287193,0.00038775052195932826,-0.00012943483057653262,4.98,3.04,0.011406587436795235,1.0006248950958252,-51.95122146606445,-0.05908203125,0.08642578125,-0.0018557178073646155,0.27922930104774607,0.0,0.0,-1.4657645962003263,1.0,0.0028102423235093423,0.002810241622508463,0.06336861713174625,0.06336885654411663,0.0,-0.0006134274824881937
1626110031.321193,0.00020638909294484975,-0.00012052107056335925,4.98,3.04,0.013086938299238682,0.9727023243904114,-53.719512939453125,-0.13916015625,0.0791015625,-0.0018557178073646155,0.27922930104774607,0.0,0.0,-1.4657645962003263,1.0,0.0028102423235093423,0.002810241622508463,0.06336861713174625,0.06336885654411663,0.0,-0.0006134274824881937
1626110031.3811932,0.0006302101997056285,-0.00011634713693055549,4.98,3.02,0.00907566025853157,0.9726512432098389,-53.719512939453125,-0.13916015625,0.0791015625,-0.002301423776227288,0.271315492933473,0.0,0.0,-1.4097595869588784,1.0,0.0028109985387957098,0.0028109979474267273,0.06337174239702786,0.06337194361003126,0.0,-0.0006169381765187794
1626110031.441193,0.001094611834757731,-0.00011589274677149715,4.98,3.02,0.00907566025853157,0.9726512432098389,-53.719512939453125,0.1083984375,0.0400390625,-0.002710499594512795,0.2600276488818321,0.0,0.0,-1.3478924200491469,1.0,0.0038436655709681313,0.0038436647095191905,0.06470174902115916,0.06470191556783482,0.0,-0.0006300632209189196
1626110031.501193,0.0015511010345022362,-0.00011461023045948325,4.98,3.02,0.008701944723725319,0.9399677515029907,-52.74390411376953,0.03564453125,-0.05712890625,-0.003478366508577832,0.2546644273832002,0.0,0.0,-1.238175199035015,1.0,0.0029237182509367675,0.0029237179024282564,0.06354883221558802,0.06354894796163871,0.0,-0.0006395409992990536
1626110031.579193,0.00276018324030396,-0.00011608235157217884,4.97,3.01,0.011029562912881374,0.9675257802009583,-52.74390411376953,0.03564453125,-0.05712890625,-0.0037270838431068863,0.25166085035382535,0.0,0.0,-1.1820489791553652,0.0,0.00281097851480224,0.002810978257470834,0.06342173754042456,0.06342183302161307,0.0,-0.0006391852140564772
1626110031.6211932,0.002501717421302784,-0.00011649087093524473,4.97,3.01,0.010070492513477802,0.8898717761039734,-53.29268264770508,0.05078125,-0.021484375,-0.003555637972106273,0.2400844502775394,0.0,0.0,-1.1710050935267493,0.0,0.005534930581950668,0.005534929759481638,0.06681410863300162,0.06681420045530627,0.0,-0.000644355900042313
1626110031.683193,0.0034853366767020728,-0.00011501987167935446,4.95,3.08,0.0037148119881749153,0.32625895738601685,-53.29268264770508,0.05078125,-0.021484375,-0.003934208809825734,0.24891934897162593,0.0,0.0,-1.1262747091054202,0.0,0.002810947282929641,0.002810947085708836,0.06342365867019072,0.06342373689637773,0.0,-0.0006380123261996978
1626110031.741193,0.003312717137433296,-0.00011240620776174255,4.95,3.08,0.0014628915814682841,-0.05021466687321663,-9.817073822021484,0.02685546875,0.0673828125,-0.003990535296163066,0.2424894609424593,0.0,0.0,-1.0845160965038274,0.0,0.0028110670658059124,0.0028110669160696855,0.06343788788198637,0.06343795170380848,0.0,-0.0006217263078972038
1626110031.787193,0.0037270838431068863,-0.00011240620776174255,4.94,3.15,0.0014628915814682841,-0.05021466687321663,-9.817073822021484,0.02685546875,0.0673828125,-0.0038015841239201773,0.22981346151202814,0.0,0.0,-1.0654768064730376,0.0,0.002811200826775433,0.0028112007171331526,0.06342681663211788,0.06342686848407575,0.0,-0.0005858249342564595
1626110031.801193,0.00339840894743472,-0.00010949078998053914,4.94,3.15,8.699477120899246e-07,-8.092536518233828e-06,1.0365853309631348,0.01513671875,0.02783203125,-0.0034235799090465194,0.175545095561947,0.0,0.0,-1.0572942793429139,0.0,0.0036114942485607707,0.0036114941223784262,0.0644491478133509,0.06444918918280026,0.0,-0.0005492522996439524
1626110031.861193,0.0038267301964750875,-0.00010108018439889024,4.92,3.2,8.699477120899246e-07,-8.092536518233828e-06,1.0365853309631348,0.01513671875,0.02783203125,-0.0030951277879193964,0.16536686573989323,0.0,0.0,-1.0569900818280493,0.0,0.002811633125334689,0.0028116330622869642,0.06341417629354848,0.06341421033963199,0.0,-0.0005129485868586611
1626110031.9211931,0.0038536304805538227,-8.569598974994049e-05,4.92,3.2,0.0018167688976973295,-0.01690017618238926,1.2195122241973877,-0.00634765625,0.01171875,-0.0029775320785314615,0.13630472988874467,0.0,0.0,-1.052707529050993,0.0,0.0050436693890678385,0.005043669215673301,0.0662085496771804,0.06620858230073742,0.0,-0.0005151589457979694
1626110031.995193,0.0034721536889685796,-6.987661115356738e-05,4.91,3.24,3.935441782232374e-06,-3.6608758819056675e-05,1.2195122241973877,-0.00634765625,0.01171875,0.0059794419500553515,0.13143961642332344,0.5,0.0,-1.0572496411334762,0.0,0.002811757558432125,0.002811757510033322,0.06338679213059993,0.06338681974368138,0.0,-0.0004811144588962669
1626110032.041193,0.0034863121524514335,-5.533787805793176e-05,4.91,3.24,0.025452647358179092,-0.13295556604862213,1.402438998222351,-0.0146484375,0.0068359375,0.037358310524106264,0.04142824204202947,0.5,0.0,-1.0594896823805293,0.0,0.004080612822373513,0.004080611242622473,0.0649894018211328,0.06498942428457843,0.0,-0.0004499825982690235
1626110032.079193,0.0030951244656146977,-5.5308826950520464e-05,4.91,3.27,0.025452647358179092,-0.13295556604862213,1.402438998222351,-0.0146484375,0.0068359375,0.05003256488346929,0.03939004490934071,0.5,0.0,-1.0628087483179538,0.0,0.0028117577274491103,0.0028117561198509468,0.06335998175483182,0.06336000841089047,0.0,-0.00041564283309091123
1626110032.101193,0.4024203665127927,-4.2346534689725e-05,4.91,3.27,0.0848521962761879,-0.049588147550821304,-0.24390244483947754,-0.08349609375,-0.19970703125,0.07326912148183001,0.008390783450509597,0.5,0.0,-1.070118469616161,0.0,0.003151485796968819,0.0031514804098656665,0.06379451389878868,0.06379456791270754,0.0,-0.00040099282792511673
1626110032.183193,0.3767439189118519,-2.972663102348949e-05,4.92,3.3,0.17950403690338135,0.04792200028896332,-0.24390244483947754,-0.08349609375,-0.19970703125,0.09394580345111754,0.007760417955307961,0.5,0.0,-1.0723968117827813,0.0,0.0028116271124331124,0.002811619414218638,0.06335583716327232,0.06335595458126127,0.0,-0.0004141187669383144
1626110032.221193,0.3696034974922533,-1.722334711867211e-05,4.92,3.3,0.2901764214038849,0.0005774098099209368,-3.1097562313079834,-0.03857421875,0.00927734375,0.09394580345111754,0.007760417955307961,0.5,0.0,-1.0723968117827813,0.0,0.0028116271124331124,0.002811619414218638,0.06335583716327232,0.06335595458126127,0.0,-0.0004141187669383144
1626110032.287193,0.3430312408528747,-1.1581620588177633e-05,4.87,3.23,0.3937757909297943,0.016901584342122078,-3.1097562313079834,-0.03857421875,0.00927734375,0.0953413775441724,0.0045734375286693146,0.5,0.0,-1.0721676144846444,0.0,0.0028115664285658943,0.0028115553485891483,0.06334661587859622,0.06334684253254666,0.0,-0.000419545556822012
1626110032.341193,0.3422086109475113,-1.5307958912515914e-05,4.87,3.23,0.4924701452255249,-0.032505884766578674,-0.9146341681480408,0.12158203125,-0.14306640625,0.10273381127168776,0.0043453177521881195,0.5,0.0,-1.0711171265099422,0.0,0.0028115719748285787,0.002811560336770561,0.06335077468985678,0.06335114130130577,0.0,-0.00040088178930630273
