time,la_x,la_y,uwb_x,uwb_y,vel_linear_x,vel_angular_z,mpu_ang_vel_z,mpu_linear_acc_x,mpu_linear_acc_y,odom_linear_x,odom_angular_z,odom_filtered_linear_x,odom_filtered_angular_z,odom_yaw,odom_filtered_yaw
1624634127.261677,6.444691355681192e-06,-9.74749580624242e-08,0.0,0.0,,,,,,5.542892066889582e-13,0.0011494535227456976,2.220257559898011e-06,0.0011407229115456131,0.24239636054973127,0.2434240581134405
1624634127.30795,6.238754173346605e-06,-9.44431120588763e-08,0.0,0.0,,,1.3414634466171265,-0.005859375,0.01220703125,5.542892066889582e-13,0.0011494535227456976,2.126429403768465e-06,0.0011052546922513061,0.24239636054973127,0.2434133143980743
1624634127.30795,6.238754173346605e-06,-9.44431120588763e-08,0.0,0.0,,,1.3414634466171265,-0.005859375,0.01220703125,5.542892066889582e-13,0.0011494535227456976,2.126429403768465e-06,0.0011052546922513061,0.24239636054973127,0.2434133143980743
1624634127.30795,6.238754173346605e-06,-9.44431120588763e-08,0.0,0.0,,,1.3414634466171265,-0.005859375,0.01220703125,5.542892066889582e-13,0.0011494535227456976,2.126429403768465e-06,0.0011052546922513061,0.24239636054973127,0.2434133143980743
1624634127.30795,6.238754173346605e-06,-9.44431120588763e-08,0.0,0.0,9.005223091662629e-07,8.376951882382855e-06,1.3414634466171265,-0.005859375,0.01220703125,5.542892066889582e-13,0.0011494535227456976,2.126429403768465e-06,0.0011052546922513061,0.24239636054973127,0.2434133143980743
1624634127.30795,6.238754173346605e-06,-9.44431120588763e-08,0.0,0.0,9.005223091662629e-07,8.376951882382855e-06,1.3414634466171265,-0.005859375,0.01220703125,5.608747738789062e-13,0.0011325084588709095,2.126429403768465e-06,0.0011052546922513061,0.24239842714569013,0.2434133143980743
1624634127.3679502,6.0291947524811505e-06,-9.134212980793481e-08,0.0,0.0,9.005223091662629e-07,8.376951882382855e-06,1.3414634466171265,-0.005859375,0.01220703125,5.608747738789062e-13,0.0011325084588709095,2.101688677696712e-06,0.0010787744997116505,0.24239842714569013,0.24341907362635778
1624634127.3679502,6.0291947524811505e-06,-9.134212980793481e-08,0.0,0.0,9.005223091662629e-07,8.376951882382855e-06,1.3414634466171265,-0.005859375,0.01220703125,5.608747738789062e-13,0.0011325084588709095,2.101688677696712e-06,0.0010787744997116505,0.24239842714569013,0.24341907362635778
1624634127.3679502,6.0291947524811505e-06,-9.134212980793481e-08,5.81,5.02,9.005223091662629e-07,8.376951882382855e-06,1.3414634466171265,-0.005859375,0.01220703125,5.608747738789062e-13,0.0011325084588709095,2.101688677696712e-06,0.0010787744997116505,0.24239842714569013,0.24341907362635778
1624634127.3679502,6.0291947524811505e-06,-9.134212980793481e-08,5.81,5.02,9.005223091662629e-07,8.376951882382855e-06,1.3414634466171265,-0.005859375,0.01220703125,5.608747738789062e-13,0.0011325084588709095,2.101688677696712e-06,0.0010787744997116505,0.24239842714569013,0.24341907362635778
1624634127.3679502,6.0291947524811505e-06,-9.134212980793481e-08,5.81,5.02,9.005223091662629e-07,8.376951882382855e-06,1.3414634466171265,-0.005859375,0.01220703125,5.622918144784963e-13,0.001061276803851639,2.101688677696712e-06,0.0010787744997116505,0.24239586125038637,0.24341907362635778
1624634127.4279501,5.81891478954264e-06,-8.821166689842732e-08,5.81,5.02,9.005223091662629e-07,8.376951882382855e-06,1.3414634466171265,-0.005859375,0.01220703125,5.622918144784963e-13,0.001061276803851639,2.062604723403856e-06,0.001028395506284288,0.24239586125038637,0.24342122842930822
1624634127.4279501,5.81891478954264e-06,-8.821166689842732e-08,5.81,5.02,9.005223091662629e-07,8.376951882382855e-06,1.3414634466171265,-0.01513671875,0.00390625,5.622918144784963e-13,0.001061276803851639,2.062604723403856e-06,0.001028395506284288,0.24239586125038637,0.24342122842930822
1624634127.4279501,5.81891478954264e-06,-8.821166689842732e-08,5.81,5.02,9.005223091662629e-07,8.376951882382855e-06,1.3414634466171265,-0.01513671875,0.00390625,5.622918144784963e-13,0.001061276803851639,2.062604723403856e-06,0.001028395506284288,0.24239586125038637,0.24342122842930822
1624634127.4279501,5.81891478954264e-06,-8.821166689842732e-08,5.81,5.02,9.005223091662629e-07,8.376951882382855e-06,1.3414634466171265,-0.01513671875,0.00390625,5.622918144784963e-13,0.001061276803851639,2.062604723403856e-06,0.001028395506284288,0.24239586125038637,0.24342122842930822
1624634127.4279501,5.81891478954264e-06,-8.821166689842732e-08,5.81,5.02,9.005223091662629e-07,8.376951882382855e-06,1.3414634466171265,-0.01513671875,0.00390625,5.586153110503913e-13,0.0012754267728518822,2.062604723403856e-06,0.001028395506284288,0.24242491450039302,0.24342122842930822
1624634127.44595,5.653997949842605e-06,-8.577988760159209e-08,5.81,5.02,9.005223091662629e-07,8.376951882382855e-06,1.3414634466171265,-0.01513671875,0.00390625,5.586153110503913e-13,0.0012754267728518822,2.062604723403856e-06,0.001028395506284288,0.24242491450039302,0.24342122842930822
1624634127.44595,5.653997949842605e-06,-8.577988760159209e-08,5.81,5.02,9.005223091662629e-07,8.376951882382855e-06,1.3414634466171265,-0.01513671875,0.00390625,5.586153110503913e-13,0.0012754267728518822,1.8532536394896344e-06,0.0011017688935786403,0.24242491450039302,0.2434057561631447
1624634127.44595,5.653997949842605e-06,-8.577988760159209e-08,5.81,5.0,9.005223091662629e-07,8.376951882382855e-06,1.3414634466171265,-0.01513671875,0.00390625,5.586153110503913e-13,0.0012754267728518822,1.8532536394896344e-06,0.0011017688935786403,0.24242491450039302,0.2434057561631447
1624634127.44595,5.653997949842605e-06,-8.577988760159209e-08,5.81,5.0,9.005223091662629e-07,8.376951882382855e-06,1.3414634466171265,-0.01513671875,0.00390625,5.586153110503913e-13,0.0012754267728518822,1.8532536394896344e-06,0.0011017688935786403,0.24242491450039302,0.2434057561631447
1624634127.48795,5.492894091405593e-06,-8.336116655654396e-08,5.81,5.0,9.005223091662629e-07,8.376951882382855e-06,1.3414634466171265,-0.01513671875,0.00390625,5.759486074418116e-13,0.0012185788511771948,1.784519993158763e-06,0.0011089286347699438,0.24240184796665487,0.2433975984484418
1624634127.48795,5.492894091405593e-06,-8.336116655654396e-08,5.81,5.0,9.005223091662629e-07,8.376951882382855e-06,1.3414634466171265,-0.01513671875,0.00390625,5.759486074418116e-13,0.0012185788511771948,1.784519993158763e-06,0.0011089286347699438,0.24240184796665487,0.2433975984484418
1624634127.48795,5.492894091405593e-06,-8.336116655654396e-08,5.81,5.0,9.005223091662629e-07,8.376951882382855e-06,1.3414634466171265,-0.01708984375,0.00830078125,5.759486074418116e-13,0.0012185788511771948,1.784519993158763e-06,0.0011089286347699438,0.24240184796665487,0.2433975984484418
1624634127.48795,5.492894091405593e-06,-8.336116655654396e-08,5.81,5.0,9.005223091662629e-07,8.376951882382855e-06,1.3414634466171265,-0.01708984375,0.00830078125,5.759486074418116e-13,0.0012185788511771948,1.784519993158763e-06,0.0011089286347699438,0.24240184796665487,0.2433975984484418
1624634127.48795,5.492894091405593e-06,-8.336116655654396e-08,5.81,5.0,9.005223091662629e-07,8.376951882382855e-06,1.3414634466171265,-0.01708984375,0.00830078125,5.759486074418116e-13,0.0012185788511771948,1.784519993158763e-06,0.0011089286347699438,0.24240184796665487,0.2433975984484418
1624634127.5499501,5.321250317912225e-06,-8.077117460870841e-08,5.81,5.0,9.005223091662629e-07,8.376951882382855e-06,1.3414634466171265,-0.01708984375,0.00830078125,5.784968389938735e-13,0.0011443246601069539,1.799051135588705e-06,0.0010907483885210767,0.24240175716641915,0.24341111382808892
1624634127.5499501,5.321250317912225e-06,-8.077117460870841e-08,5.81,5.0,9.005223091662629e-07,8.376951882382855e-06,1.3414634466171265,-0.01708984375,0.00830078125,5.784968389938735e-13,0.0011443246601069539,1.799051135588705e-06,0.0010907483885210767,0.24240175716641915,0.24341111382808892
1624634127.5499501,5.321250317912225e-06,-8.077117460870841e-08,5.89,4.99,9.005223091662629e-07,8.376951882382855e-06,1.3414634466171265,-0.01708984375,0.00830078125,5.784968389938735e-13,0.0011443246601069539,1.799051135588705e-06,0.0010907483885210767,0.24240175716641915,0.24341111382808892
1624634127.5499501,5.321250317912225e-06,-8.077117460870841e-08,5.89,4.99,9.005223091662629e-07,8.376951882382855e-06,1.3414634466171265,-0.01708984375,0.00830078125,5.784968389938735e-13,0.0011443246601069539,1.799051135588705e-06,0.0010907483885210767,0.24240175716641915,0.24341111382808892
1624634127.5499501,5.321250317912225e-06,-8.077117460870841e-08,5.89,4.99,9.005223091662629e-07,8.376951882382855e-06,1.3414634466171265,-0.01708984375,0.00830078125,5.784968389938735e-13,0.0011443246601069539,1.799051135588705e-06,0.0010907483885210767,0.24240175716641915,0.24341111382808892
1624634127.60795,5.1464660531729465e-06,-7.811539390061301e-08,5.89,4.99,9.005223091662629e-07,8.376951882382855e-06,1.3414634466171265,-0.01708984375,0.00830078125,5.767207160768908e-13,0.001074712573986403,1.7755543434026893e-06,0.0010439935068978804,0.24239657704623582,0.24341391157685233
1624634127.60795,5.1464660531729465e-06,-7.811539390061301e-08,5.89,4.99,9.005223091662629e-07,8.376951882382855e-06,1.3414634466171265,-0.01708984375,0.00830078125,5.767207160768908e-13,0.001074712573986403,1.7755543434026893e-06,0.0010439935068978804,0.24239657704623582,0.24341391157685233
1624634127.60795,5.1464660531729465e-06,-7.811539390061301e-08,5.89,4.99,9.005223091662629e-07,8.376951882382855e-06,1.2804877758026123,-0.01708984375,0.0048828125,5.767207160768908e-13,0.001074712573986403,1.7755543434026893e-06,0.0010439935068978804,0.24239657704623582,0.24341391157685233
1624634127.60795,5.1464660531729465e-06,-7.811539390061301e-08,5.89,4.99,9.230353725797613e-07,8.586375770391896e-06,1.2804877758026123,-0.01708984375,0.0048828125,5.767207160768908e-13,0.001074712573986403,1.7755543434026893e-06,0.0010439935068978804,0.24239657704623582,0.24341391157685233
1624634127.60795,5.1464660531729465e-06,-7.811539390061301e-08,5.89,4.99,9.230353725797613e-07,8.586375770391896e-06,1.2804877758026123,-0.01708984375,0.0048828125,5.767207160768908e-13,0.001074712573986403,1.7755543434026893e-06,0.0010439935068978804,0.24239657704623582,0.24341391157685233
1624634127.6679502,4.969738326704197e-06,-7.54154691211187e-08,5.89,4.99,9.230353725797613e-07,8.586375770391896e-06,1.2804877758026123,-0.01708984375,0.0048828125,5.855210542997472e-13,0.0013059070940026043,1.7481218716981162e-06,0.0011152757575682603,0.24240393423121542,0.24342342713840592
1624634127.6679502,4.969738326704197e-06,-7.54154691211187e-08,5.89,4.99,9.230353725797613e-07,8.586375770391896e-06,1.2804877758026123,-0.01708984375,0.0048828125,5.855210542997472e-13,0.0013059070940026043,1.7481218716981162e-06,0.0011152757575682603,0.24240393423121542,0.24342342713840592
1624634127.6679502,4.969738326704197e-06,-7.54154691211187e-08,5.95,5.01,9.230353725797613e-07,8.586375770391896e-06,1.2804877758026123,-0.01708984375,0.0048828125,5.855210542997472e-13,0.0013059070940026043,1.7481218716981162e-06,0.0011152757575682603,0.24240393423121542,0.24342342713840592
1624634127.6679502,4.969738326704197e-06,-7.54154691211187e-08,5.95,5.01,9.230353725797613e-07,8.586375770391896e-06,1.2804877758026123,-0.01708984375,0.0048828125,5.855210542997472e-13,0.0013059070940026043,1.7481218716981162e-06,0.0011152757575682603,0.24240393423121542,0.24342342713840592
1624634127.6679502,4.969738326704197e-06,-7.54154691211187e-08,5.95,5.01,9.005223091662629e-07,8.376951882382855e-06,1.2804877758026123,-0.01708984375,0.0048828125,5.855210542997472e-13,0.0013059070940026043,1.7481218716981162e-06,0.0011152757575682603,0.24240393423121542,0.24342342713840592
1624634127.72795,4.793563117372778e-06,-7.271021547947281e-08,5.95,5.01,9.005223091662629e-07,8.376951882382855e-06,1.2804877758026123,-0.01708984375,0.0048828125,5.860941487453731e-13,0.0012235723511497102,1.710605698566619e-06,0.0011064545640099702,0.24240237878731039,0.24343002307332956
1624634127.72795,4.793563117372778e-06,-7.271021547947281e-08,5.95,5.01,9.005223091662629e-07,8.376951882382855e-06,1.2804877758026123,-0.01708984375,0.0048828125,5.860941487453731e-13,0.0012235723511497102,1.710605698566619e-06,0.0011064545640099702,0.24240237878731039,0.24343002307332956
1624634127.72795,4.793563117372778e-06,-7.271021547947281e-08,5.95,5.01,9.005223091662629e-07,8.376951882382855e-06,1.2804877758026123,-0.01708984375,0.0048828125,5.860941487453731e-13,0.0012235723511497102,1.710605698566619e-06,0.0011064545640099702,0.24240237878731039,0.24343002307332956
1624634127.72795,4.793563117372778e-06,-7.271021547947281e-08,5.95,5.01,9.005223091662629e-07,8.376951882382855e-06,1.2804877758026123,-0.0166015625,0.0107421875,5.860941487453731e-13,0.0012235723511497102,1.710605698566619e-06,0.0011064545640099702,0.24240237878731039,0.24343002307332956
1624634127.72795,4.793563117372778e-06,-7.271021547947281e-08,5.95,5.01,9.005223091662629e-07,8.376951882382855e-06,1.2804877758026123,-0.0166015625,0.0107421875,5.860941487453731e-13,0.0012235723511497102,1.710605698566619e-06,0.0011064545640099702,0.24240237878731039,0.24343002307332956
1624634127.75795,4.6483584708549135e-06,-7.052114173626423e-08,5.95,5.01,9.005223091662629e-07,8.376951882382855e-06,1.2804877758026123,-0.0166015625,0.0107421875,5.742274109893658e-13,0.0013899943222829155,1.5778804004345726e-06,0.0011991782419943028,0.24244888962701833,0.24343618369714506
1624634127.75795,4.6483584708549135e-06,-7.052114173626423e-08,5.95,5.01,9.005223091662629e-07,8.376951882382855e-06,1.2804877758026123,-0.0166015625,0.0107421875,5.742274109893658e-13,0.0013899943222829155,1.5778804004345726e-06,0.0011991782419943028,0.24244888962701833,0.24343618369714506
1624634127.75795,4.6483584708549135e-06,-7.052114173626423e-08,5.91,5.0,9.005223091662629e-07,8.376951882382855e-06,1.2804877758026123,-0.0166015625,0.0107421875,5.742274109893658e-13,0.0013899943222829155,1.5778804004345726e-06,0.0011991782419943028,0.24244888962701833,0.24343618369714506
1624634127.75795,4.6483584708549135e-06,-7.052114173626423e-08,5.91,5.0,9.005223091662629e-07,8.376951882382855e-06,1.2804877758026123,-0.0166015625,0.0107421875,5.742274109893658e-13,0.0013899943222829155,1.5778804004345726e-06,0.0011991782419943028,0.24244888962701833,0.24343618369714506
1624634127.75795,4.6483584708549135e-06,-7.052114173626423e-08,5.91,5.0,9.005223091662629e-07,8.376951882382855e-06,1.2804877758026123,-0.0166015625,0.0107421875,5.742274109893658e-13,0.0013899943222829155,1.5778804004345726e-06,0.0011991782419943028,0.24244888962701833,0.24343618369714506
1624634127.78795,4.516282198882935e-06,-6.847521074680984e-08,5.91,5.0,9.005223091662629e-07,8.376951882382855e-06,1.2804877758026123,-0.0166015625,0.0107421875,5.994487346572053e-13,0.0013445887980008471,1.4661573461939651e-06,0.0012126123200263887,0.24240753894338385,0.24341645710219484
1624634127.78795,4.516282198882935e-06,-6.847521074680984e-08,5.91,5.0,9.005223091662629e-07,8.376951882382855e-06,1.2804877758026123,-0.0166015625,0.0107421875,5.994487346572053e-13,0.0013445887980008471,1.4661573461939651e-06,0.0012126123200263887,0.24240753894338385,0.24341645710219484
1624634127.78795,4.516282198882935e-06,-6.847521074680984e-08,5.91,5.0,9.005223091662629e-07,8.376951882382855e-06,1.3414634466171265,-0.01513671875,0.01123046875,5.994487346572053e-13,0.0013445887980008471,1.4661573461939651e-06,0.0012126123200263887,0.24240753894338385,0.24341645710219484
1624634127.78795,4.516282198882935e-06,-6.847521074680984e-08,5.91,5.0,9.005223091662629e-07,8.376951882382855e-06,1.3414634466171265,-0.01513671875,0.01123046875,5.994487346572053e-13,0.0013445887980008471,1.4661573461939651e-06,0.0012126123200263887,0.24240753894338385,0.24341645710219484
1624634127.78795,4.516282198882935e-06,-6.847521074680984e-08,5.91,5.0,9.005223091662629e-07,8.376951882382855e-06,1.3414634466171265,-0.01513671875,0.01123046875,5.994487346572053e-13,0.0013445887980008471,1.4661573461939651e-06,0.0012126123200263887,0.24240753894338385,0.24341645710219484
1624634127.84795,4.3766461584256515e-06,-6.630178500647012e-08,5.91,5.0,9.005223091662629e-07,8.376951882382855e-06,1.3414634466171265,-0.01513671875,0.01123046875,6.073465705230948e-13,0.0012766194400322419,1.4718018605436639e-06,0.0012059507689600498,0.24240562962904866,0.24343047133656856
1624634127.84795,4.3766461584256515e-06,-6.630178500647012e-08,5.91,5.0,9.005223091662629e-07,8.376951882382855e-06,1.3414634466171265,-0.01513671875,0.01123046875,6.073465705230948e-13,0.0012766194400322419,1.4718018605436639e-06,0.0012059507689600498,0.24240562962904866,0.24343047133656856
1624634127.84795,4.3766461584256515e-06,-6.630178500647012e-08,5.91,5.0,9.005223091662629e-07,8.376951882382855e-06,1.3414634466171265,-0.01513671875,0.01123046875,6.073465705230948e-13,0.0012766194400322419,1.4718018605436639e-06,0.0012059507689600498,0.24240562962904866,0.24343047133656856
1624634127.84795,4.3766461584256515e-06,-6.630178500647012e-08,5.89,5.0,9.005223091662629e-07,8.376951882382855e-06,1.3414634466171265,-0.01513671875,0.01123046875,6.073465705230948e-13,0.0012766194400322419,1.4718018605436639e-06,0.0012059507689600498,0.24240562962904866,0.24343047133656856
1624634127.84795,4.3766461584256515e-06,-6.630178500647012e-08,5.89,5.0,9.005223091662629e-07,8.376951882382855e-06,1.3414634466171265,-0.01513671875,0.01123046875,6.073465705230948e-13,0.0012766194400322419,1.4718018605436639e-06,0.0012059507689600498,0.24240562962904866,0.24343047133656856
1624634127.9079502,4.232826738177611e-06,-6.405342578181479e-08,5.89,5.0,9.005223091662629e-07,8.376951882382855e-06,1.3414634466171265,-0.01513671875,0.01123046875,6.066012503532097e-13,0.0011966087319492619,1.460986455961366e-06,0.0011618370839385757,0.24240242021164524,0.24344034046375476
1624634127.9079502,4.232826738177611e-06,-6.405342578181479e-08,5.89,5.0,9.005223091662629e-07,8.376951882382855e-06,1.4634146690368652,-0.01171875,0.0048828125,6.066012503532097e-13,0.0011966087319492619,1.460986455961366e-06,0.0011618370839385757,0.24240242021164524,0.24344034046375476
1624634127.9079502,4.232826738177611e-06,-6.405342578181479e-08,5.89,5.0,9.005223091662629e-07,8.376951882382855e-06,1.4634146690368652,-0.01171875,0.0048828125,6.066012503532097e-13,0.0011966087319492619,1.460986455961366e-06,0.0011618370839385757,0.24240242021164524,0.24344034046375476
1624634127.9079502,4.232826738177611e-06,-6.405342578181479e-08,5.89,5.0,9.005223091662629e-07,8.376951882382855e-06,1.4634146690368652,-0.01171875,0.0048828125,6.066012503532097e-13,0.0011966087319492619,1.460986455961366e-06,0.0011618370839385757,0.24240242021164524,0.24344034046375476
1624634127.9079502,4.232826738177611e-06,-6.405342578181479e-08,5.89,5.0,9.005223091662629e-07,8.376951882382855e-06,1.4634146690368652,-0.01171875,0.0048828125,6.066012503532097e-13,0.0011966087319492619,1.460986455961366e-06,0.0011618370839385757,0.24240242021164524,0.24344034046375476
1624634127.96795,4.087440656672378e-06,-6.177096578511114e-08,5.89,5.0,9.005223091662629e-07,8.376951882382855e-06,1.4634146690368652,-0.01171875,0.0048828125,6.082979249170653e-13,0.0012175065971106675,1.460986455961366e-06,0.0011618370839385757,0.24240283797240772,0.24344034046375476
1624634127.96795,4.087440656672378e-06,-6.177096578511114e-08,5.89,5.0,9.005223091662629e-07,8.376951882382855e-06,1.4634146690368652,-0.01171875,0.0048828125,6.082979249170653e-13,0.0012175065971106675,1.4382237723849207e-06,0.0011428922310818934,0.24240283797240772,0.24344807127573678
1624634127.96795,4.087440656672378e-06,-6.177096578511114e-08,5.95,5.01,9.005223091662629e-07,8.376951882382855e-06,1.4634146690368652,-0.01171875,0.0048828125,6.082979249170653e-13,0.0012175065971106675,1.4382237723849207e-06,0.0011428922310818934,0.24240283797240772,0.24344807127573678
1624634127.96795,4.087440656672378e-06,-6.177096578511114e-08,5.95,5.01,9.005223091662629e-07,8.376951882382855e-06,1.4634146690368652,-0.01171875,0.0048828125,6.082979249170653e-13,0.0012175065971106675,1.4382237723849207e-06,0.0011428922310818934,0.24240283797240772,0.24344807127573678
1624634127.96795,4.087440656672378e-06,-6.177096578511114e-08,5.95,5.01,9.005223091662629e-07,8.376951882382855e-06,1.4634146690368652,-0.01171875,0.0048828125,6.082979249170653e-13,0.0012175065971106675,1.4382237723849207e-06,0.0011428922310818934,0.24240283797240772,0.24344807127573678
1624634128.02795,3.942539656212171e-06,-5.9487231337568013e-08,5.95,5.01,9.005223091662629e-07,8.376951882382855e-06,1.4634146690368652,-0.01171875,0.0048828125,6.028555546622975e-13,0.0011406490977603717,1.4072205190471252e-06,0.0010930853866957951,0.2423997218715962,0.2434512128383237
1624634128.02795,3.942539656212171e-06,-5.9487231337568013e-08,5.95,5.01,9.005223091662629e-07,8.376951882382855e-06,1.4634146690368652,-0.01171875,0.0048828125,6.028555546622975e-13,0.0011406490977603717,1.4072205190471252e-06,0.0010930853866957951,0.2423997218715962,0.2434512128383237
1624634128.02795,3.942539656212171e-06,-5.9487231337568013e-08,5.95,5.01,9.005223091662629e-07,8.376951882382855e-06,1.3414634466171265,-0.01318359375,0.0009765625,6.028555546622975e-13,0.0011406490977603717,1.4072205190471252e-06,0.0010930853866957951,0.2423997218715962,0.2434512128383237
1624634128.02795,3.942539656212171e-06,-5.9487231337568013e-08,5.95,5.01,9.005223091662629e-07,8.376951882382855e-06,1.3414634466171265,-0.01318359375,0.0009765625,6.028555546622975e-13,0.0011406490977603717,1.4072205190471252e-06,0.0010930853866957951,0.2423997218715962,0.2434512128383237
1624634128.02795,3.942539656212171e-06,-5.9487231337568013e-08,5.95,5.01,9.005223091662629e-07,8.376951882382855e-06,1.3414634466171265,-0.01318359375,0.0009765625,6.028555546622975e-13,0.0011406490977603717,1.4072205190471252e-06,0.0010930853866957951,0.2423997218715962,0.2434512128383237
1624634128.0499501,3.8272574881895166e-06,-5.769901733476126e-08,5.95,5.01,9.005223091662629e-07,8.376951882382855e-06,1.3414634466171265,-0.01318359375,0.0009765625,5.911420646520337e-13,0.001171504939790595,1.4072205190471252e-06,0.0010930853866957951,0.24242694176782592,0.2434512128383237
1624634128.0499501,3.8272574881895166e-06,-5.769901733476126e-08,5.95,5.01,9.005223091662629e-07,8.376951882382855e-06,1.3414634466171265,-0.01318359375,0.0009765625,5.911420646520337e-13,0.001171504939790595,1.2743326887637122e-06,0.0010998803263651304,0.24242694176782592,0.24343692106706888
1624634128.0499501,3.8272574881895166e-06,-5.769901733476126e-08,5.92,5.0,9.005223091662629e-07,8.376951882382855e-06,1.3414634466171265,-0.01318359375,0.0009765625,5.911420646520337e-13,0.001171504939790595,1.2743326887637122e-06,0.0010998803263651304,0.24242694176782592,0.24343692106706888
1624634128.0499501,3.8272574881895166e-06,-5.769901733476126e-08,5.92,5.0,9.005223091662629e-07,8.376951882382855e-06,1.3414634466171265,-0.01318359375,0.0009765625,5.911420646520337e-13,0.001171504939790595,1.2743326887637122e-06,0.0010998803263651304,0.24242694176782592,0.24343692106706888
1624634128.0499501,3.8272574881895166e-06,-5.769901733476126e-08,5.92,5.0,9.005223091662629e-07,8.376951882382855e-06,1.3414634466171265,-0.01318359375,0.0009765625,5.911420646520337e-13,0.001171504939790595,1.2743326887637122e-06,0.0010998803263651304,0.24242694176782592,0.24343692106706888
1624634128.08795,3.717581709707831e-06,-5.595852614347489e-08,5.92,5.0,9.005223091662629e-07,8.376951882382855e-06,1.3414634466171265,-0.01318359375,0.0009765625,5.992076870772221e-13,0.0011237473669503371,1.2111708879951518e-06,0.0010726435263049563,0.24239898253481226,0.24341919162059322
1624634128.08795,3.717581709707831e-06,-5.595852614347489e-08,5.92,5.0,9.005223091662629e-07,8.376951882382855e-06,1.3414634466171265,-0.01318359375,0.0009765625,5.992076870772221e-13,0.0011237473669503371,1.2111708879951518e-06,0.0010726435263049563,0.24239898253481226,0.24341919162059322
1624634128.08795,3.717581709707831e-06,-5.595852614347489e-08,5.92,5.0,9.005223091662629e-07,8.376951882382855e-06,1.402438998222351,-0.0146484375,0.00048828125,5.992076870772221e-13,0.0011237473669503371,1.2111708879951518e-06,0.0010726435263049563,0.24239898253481226,0.24341919162059322
1624634128.08795,3.717581709707831e-06,-5.595852614347489e-08,5.92,5.0,9.005223091662629e-07,8.376951882382855e-06,1.402438998222351,-0.0146484375,0.00048828125,5.992076870772221e-13,0.0011237473669503371,1.2111708879951518e-06,0.0010726435263049563,0.24239898253481226,0.24341919162059322
1624634128.08795,3.717581709707831e-06,-5.595852614347489e-08,5.92,5.0,9.005223091662629e-07,8.376951882382855e-06,1.402438998222351,-0.0146484375,0.00048828125,5.892889427556838e-13,0.001209590650796528,1.2111708879951518e-06,0.0010726435263049563,0.24240788715673145,0.24341919162059322
1624634128.15395,3.5989938577651776e-06,-5.407813721725935e-08,5.92,5.0,9.005223091662629e-07,8.376951882382855e-06,1.402438998222351,-0.0146484375,0.00048828125,5.892889427556838e-13,0.001209590650796528,1.2309938284748441e-06,0.0010992913286846917,0.24240788715673145,0.24343909574363512
1624634128.15395,3.5989938577651776e-06,-5.407813721725935e-08,5.92,5.0,9.005223091662629e-07,8.376951882382855e-06,1.402438998222351,-0.0146484375,0.00048828125,5.892889427556838e-13,0.001209590650796528,1.2309938284748441e-06,0.0010992913286846917,0.24240788715673145,0.24343909574363512
1624634128.15395,3.5989938577651776e-06,-5.407813721725935e-08,5.9,5.0,9.005223091662629e-07,8.376951882382855e-06,1.402438998222351,-0.0146484375,0.00048828125,5.892889427556838e-13,0.001209590650796528,1.2309938284748441e-06,0.0010992913286846917,0.24240788715673145,0.24343909574363512
1624634128.15395,3.5989938577651776e-06,-5.407813721725935e-08,5.9,5.0,9.005223091662629e-07,8.376951882382855e-06,1.402438998222351,-0.0146484375,0.00048828125,5.892889427556838e-13,0.001209590650796528,1.2309938284748441e-06,0.0010992913286846917,0.24240788715673145,0.24343909574363512
1624634128.15395,3.5989938577651776e-06,-5.407813721725935e-08,5.9,5.0,9.005223091662629e-07,8.376951882382855e-06,1.402438998222351,-0.0146484375,0.00048828125,5.816217760294478e-13,0.0011408384684141971,1.2309938284748441e-06,0.0010992913286846917,0.2423989340762382,0.24343909574363512
1624634128.20795,3.4809842173880944e-06,-5.219133604047293e-08,5.9,5.0,9.005223091662629e-07,8.376951882382855e-06,1.402438998222351,-0.0146484375,0.00048828125,5.816217760294478e-13,0.0011408384684141971,1.200830332938624e-06,0.0010722017380265223,0.2423989340762382,0.24343641364791344
1624634128.20795,3.4809842173880944e-06,-5.219133604047293e-08,5.9,5.0,9.005223091662629e-07,8.376951882382855e-06,1.402438998222351,-0.0146484375,0.00048828125,5.816217760294478e-13,0.0011408384684141971,1.200830332938624e-06,0.0010722017380265223,0.2423989340762382,0.24343641364791344
1624634128.20795,3.4809842173880944e-06,-5.219133604047293e-08,5.9,5.0,9.005223091662629e-07,8.376951882382855e-06,1.402438998222351,-0.0146484375,0.00048828125,5.816217760294478e-13,0.0011408384684141971,1.200830332938624e-06,0.0010722017380265223,0.2423989340762382,0.24343641364791344
1624634128.20795,3.4809842173880944e-06,-5.219133604047293e-08,5.9,5.0,9.005223091662629e-07,8.376951882382855e-06,1.3414634466171265,-0.01708984375,0.0068359375,5.816217760294478e-13,0.0011408384684141971,1.200830332938624e-06,0.0010722017380265223,0.2423989340762382,0.24343641364791344
1624634128.20795,3.4809842173880944e-06,-5.219133604047293e-08,5.9,5.0,9.005223091662629e-07,8.376951882382855e-06,1.3414634466171265,-0.01708984375,0.0068359375,5.74729623808956e-13,0.0011675375306953205,1.200830332938624e-06,0.0010722017380265223,0.24239965582657208,0.24343641364791344
1624634128.26795,3.361641476359111e-06,-5.027752170747479e-08,5.9,5.0,9.005223091662629e-07,8.376951882382855e-06,1.3414634466171265,-0.01708984375,0.0068359375,5.74729623808956e-13,0.0011675375306953205,1.200830332938624e-06,0.0010722017380265223,0.24239965582657208,0.24343641364791344
1624634128.26795,3.361641476359111e-06,-5.027752170747479e-08,5.9,5.0,9.005223091662629e-07,8.376951882382855e-06,1.3414634466171265,-0.01708984375,0.0068359375,5.74729623808956e-13,0.0011675375306953205,1.1823842170028152e-06,0.0010706715226937256,0.24239965582657208,0.24343957627961227
1624634128.26795,3.361641476359111e-06,-5.027752170747479e-08,5.97,5.0,9.005223091662629e-07,8.376951882382855e-06,1.3414634466171265,-0.01708984375,0.0068359375,5.74729623808956e-13,0.0011675375306953205,1.1823842170028152e-06,0.0010706715226937256,0.24239965582657208,0.24343957627961227
1624634128.26795,3.361641476359111e-06,-5.027752170747479e-08,5.97,5.0,9.005223091662629e-07,8.376951882382855e-06,1.3414634466171265,-0.01708984375,0.0068359375,5.74729623808956e-13,0.0011675375306953205,1.1823842170028152e-06,0.0010706715226937256,0.24239965582657208,0.24343957627961227
1624634128.26795,3.361641476359111e-06,-5.027752170747479e-08,5.97,5.0,9.005223091662629e-07,8.376951882382855e-06,1.3414634466171265,-0.01708984375,0.0068359375,5.74729623808956e-13,0.0011675375306953205,1.1823842170028152e-06,0.0010706715226937256,0.24239965582657208,0.24343957627961227
1624634128.32795,3.2426508557279935e-06,-4.836415845910599e-08,5.97,5.0,9.005223091662629e-07,8.376951882382855e-06,1.3414634466171265,-0.005859375,0.01220703125,5.625963704603013e-13,0.0010939133562017037,1.1571014769000061e-06,0.0010307483494792918,0.24239709981711025,0.24343892409514417
1624634128.32795,3.2426508557279935e-06,-4.836415845910599e-08,5.97,5.0,9.005223091662629e-07,8.376951882382855e-06,1.3414634466171265,-0.005859375,0.01220703125,5.625963704603013e-13,0.0010939133562017037,1.1571014769000061e-06,0.0010307483494792918,0.24239709981711025,0.24343892409514417
1624634128.32795,3.2426508557279935e-06,-4.836415845910599e-08,5.97,5.0,9.005223091662629e-07,8.376951882382855e-06,1.3414634466171265,-0.005859375,0.01220703125,5.625963704603013e-13,0.0010939133562017037,1.1571014769000061e-06,0.0010307483494792918,0.24239709981711025,0.24343892409514417
1624634128.32795,3.2426508557279935e-06,-4.836415845910599e-08,5.97,5.0,9.005223091662629e-07,8.376951882382855e-06,1.3414634466171265,-0.005859375,0.01220703125,5.625963704603013e-13,0.0010939133562017037,1.1571014769000061e-06,0.0010307483494792918,0.24239709981711025,0.24343892409514417
1624634128.32795,3.2426508557279935e-06,-4.836415845910599e-08,5.97,5.0,9.005223091662629e-07,8.376951882382855e-06,1.3414634466171265,-0.005859375,0.01220703125,5.564706030231989e-13,0.001142471896224351,1.1571014769000061e-06,0.0010307483494792918,0.2424148680632087,0.24343892409514417
1624634128.3419502,3.1513329171143385e-06,-4.691284643517876e-08,5.97,5.0,9.005223091662629e-07,8.376951882382855e-06,1.3414634466171265,-0.005859375,0.01220703125,5.564706030231989e-13,0.001142471896224351,1.0284241635823926e-06,0.0010510807157265059,0.2424148680632087,0.24341130137049644
1624634128.3419502,3.1513329171143385e-06,-4.691284643517876e-08,5.97,5.0,9.005223091662629e-07,8.376951882382855e-06,1.3414634466171265,-0.005859375,0.01220703125,5.564706030231989e-13,0.001142471896224351,1.0284241635823926e-06,0.0010510807157265059,0.2424148680632087,0.24341130137049644
1624634128.3419502,3.1513329171143385e-06,-4.691284643517876e-08,5.91,5.0,9.005223091662629e-07,8.376951882382855e-06,1.3414634466171265,-0.005859375,0.01220703125,5.564706030231989e-13,0.001142471896224351,1.0284241635823926e-06,0.0010510807157265059,0.2424148680632087,0.24341130137049644
1624634128.3419502,3.1513329171143385e-06,-4.691284643517876e-08,5.91,5.0,9.005223091662629e-07,8.376951882382855e-06,1.3414634466171265,-0.005859375,0.01220703125,5.564706030231989e-13,0.001142471896224351,1.0284241635823926e-06,0.0010510807157265059,0.2424148680632087,0.24341130137049644
1624634128.3419502,3.1513329171143385e-06,-4.691284643517876e-08,5.91,5.0,9.005223091662629e-07,8.376951882382855e-06,1.3414634466171265,-0.005859375,0.01220703125,5.532080061455151e-13,0.0010870438165800646,1.0284241635823926e-06,0.0010510807157265059,0.24239690943302347,0.24341130137049644
1624634128.3879502,3.060371795125032e-06,-4.544317421146655e-08,5.91,5.0,9.230353725797613e-07,8.586375770391896e-06,1.3414634466171265,-0.005859375,0.01220703125,5.532080061455151e-13,0.0010870438165800646,1.0003246415353785e-06,0.0010307316075799059,0.24239690943302347,0.2434012110277772
1624634128.3879502,3.060371795125032e-06,-4.544317421146655e-08,5.91,5.0,9.230353725797613e-07,8.586375770391896e-06,1.2195122241973877,-0.015625,0.0087890625,5.532080061455151e-13,0.0010870438165800646,1.0003246415353785e-06,0.0010307316075799059,0.24239690943302347,0.2434012110277772
1624634128.3879502,3.060371795125032e-06,-4.544317421146655e-08,5.91,5.0,9.230353725797613e-07,8.586375770391896e-06,1.2195122241973877,-0.015625,0.0087890625,5.532080061455151e-13,0.0010870438165800646,1.0003246415353785e-06,0.0010307316075799059,0.24239690943302347,0.2434012110277772
1624634128.3879502,3.060371795125032e-06,-4.544317421146655e-08,5.91,5.0,9.230353725797613e-07,8.586375770391896e-06,1.2195122241973877,-0.015625,0.0087890625,5.532080061455151e-13,0.0010870438165800646,1.0003246415353785e-06,0.0010307316075799059,0.24239690943302347,0.2434012110277772
1624634128.3879502,3.060371795125032e-06,-4.544317421146655e-08,5.91,5.0,9.230353725797613e-07,8.586375770391896e-06,1.2195122241973877,-0.015625,0.0087890625,5.461527418858402e-13,0.0012239266251462487,1.0003246415353785e-06,0.0010307316075799059,0.24240027589042287,0.2434012110277772
1624634128.4479501,2.9647017000714955e-06,-4.389373194560514e-08,5.91,5.0,9.230353725797613e-07,8.586375770391896e-06,1.2195122241973877,-0.015625,0.0087890625,5.461527418858402e-13,0.0012239266251462487,1.0003246415353785e-06,0.0010307316075799059,0.24240027589042287,0.2434012110277772
1624634128.4479501,2.9647017000714955e-06,-4.389373194560514e-08,5.91,5.0,9.005223091662629e-07,8.376951882382855e-06,1.2195122241973877,-0.015625,0.0087890625,5.461527418858402e-13,0.0012239266251462487,1.0020271484033381e-06,0.001080182442693345,0.24240027589042287,0.24340859661960734
1624634128.4479501,2.9647017000714955e-06,-4.389373194560514e-08,5.91,5.0,9.005223091662629e-07,8.376951882382855e-06,1.2195122241973877,-0.015625,0.0087890625,5.461527418858402e-13,0.0012239266251462487,1.0020271484033381e-06,0.001080182442693345,0.24240027589042287,0.24340859661960734
1624634128.4479501,2.9647017000714955e-06,-4.389373194560514e-08,5.91,5.0,9.005223091662629e-07,8.376951882382855e-06,1.2195122241973877,-0.015625,0.0087890625,5.461527418858402e-13,0.0012239266251462487,1.0020271484033381e-06,0.001080182442693345,0.24240027589042287,0.24340859661960734
1624634128.4479501,2.9647017000714955e-06,-4.389373194560514e-08,5.9,5.01,9.005223091662629e-07,8.376951882382855e-06,1.2195122241973877,-0.015625,0.0087890625,5.329292457627749e-13,0.0011471555267118573,1.0020271484033381e-06,0.001080182442693345,0.24239877561739362,0.24340859661960734
1624634128.50795,2.866527803902842e-06,-4.230039257947287e-08,5.9,5.01,9.005223091662629e-07,8.376951882382855e-06,1.2195122241973877,-0.015625,0.0087890625,5.329292457627749e-13,0.0011471555267118573,9.931103549902945e-07,0.0010641016043779355,0.24239877561739362,0.2434138349726528
1624634128.50795,2.866527803902842e-06,-4.230039257947287e-08,5.9,5.01,9.005223091662629e-07,8.376951882382855e-06,1.3414634466171265,-0.00537109375,0.005859375,5.329292457627749e-13,0.0011471555267118573,9.931103549902945e-07,0.0010641016043779355,0.24239877561739362,0.2434138349726528
1624634128.50795,2.866527803902842e-06,-4.230039257947287e-08,5.9,5.01,9.005223091662629e-07,8.376951882382855e-06,1.3414634466171265,-0.00537109375,0.005859375,5.329292457627749e-13,0.0011471555267118573,9.931103549902945e-07,0.0010641016043779355,0.24239877561739362,0.2434138349726528
1624634128.50795,2.866527803902842e-06,-4.230039257947287e-08,5.9,5.01,9.005223091662629e-07,8.376951882382855e-06,1.3414634466171265,-0.00537109375,0.005859375,5.329292457627749e-13,0.0011471555267118573,9.931103549902945e-07,0.0010641016043779355,0.24239877561739362,0.2434138349726528
1624634128.50795,2.866527803902842e-06,-4.230039257947287e-08,5.9,5.01,9.005223091662629e-07,8.376951882382855e-06,1.3414634466171265,-0.00537109375,0.005859375,5.31902004525363e-13,0.0013288342791868781,9.931103549902945e-07,0.0010641016043779355,0.242405385573587,0.2434138349726528
1624634128.56795,2.767548305454418e-06,-4.0690716330833016e-08,5.9,5.01,9.005223091662629e-07,8.376951882382855e-06,1.3414634466171265,-0.00537109375,0.005859375,5.31902004525363e-13,0.0013288342791868781,9.76527535073166e-07,0.0011357810862381323,0.242405385573587,0.24342349672411692
1624634128.56795,2.767548305454418e-06,-4.0690716330833016e-08,5.9,5.01,9.005223091662629e-07,8.376951882382855e-06,1.3414634466171265,-0.00537109375,0.005859375,5.31902004525363e-13,0.0013288342791868781,9.76527535073166e-07,0.0011357810862381323,0.242405385573587,0.24342349672411692
1624634128.56795,2.767548305454418e-06,-4.0690716330833016e-08,5.88,5.02,9.005223091662629e-07,8.376951882382855e-06,1.3414634466171265,-0.00537109375,0.005859375,5.31902004525363e-13,0.0013288342791868781,9.76527535073166e-07,0.0011357810862381323,0.242405385573587,0.24342349672411692
1624634128.56795,2.767548305454418e-06,-4.0690716330833016e-08,5.88,5.02,9.005223091662629e-07,8.376951882382855e-06,1.3414634466171265,-0.00537109375,0.005859375,5.31902004525363e-13,0.0013288342791868781,9.76527535073166e-07,0.0011357810862381323,0.242405385573587,0.24342349672411692
1624634128.56795,2.767548305454418e-06,-4.0690716330833016e-08,5.88,5.02,9.005223091662629e-07,8.376951882382855e-06,1.3414634466171265,-0.00537109375,0.005859375,5.246267578356893e-13,0.001244998330269843,9.76527535073166e-07,0.0011357810862381323,0.24240357706972146,0.24342349672411692
1624634128.6279502,2.6690842977881884e-06,-3.9086636209118274e-08,5.88,5.02,9.005223091662629e-07,8.376951882382855e-06,1.3414634466171265,-0.00537109375,0.005859375,5.246267578356893e-13,0.001244998330269843,9.54686492219112e-07,0.0011268211065131725,0.24240357706972146,0.2434303184050973
1624634128.6279502,2.6690842977881884e-06,-3.9086636209118274e-08,5.88,5.02,9.005223091662629e-07,8.376951882382855e-06,1.4634146690368652,-0.01611328125,0.0048828125,5.246267578356893e-13,0.001244998330269843,9.54686492219112e-07,0.0011268211065131725,0.24240357706972146,0.2434303184050973
1624634128.6279502,2.6690842977881884e-06,-3.9086636209118274e-08,5.88,5.02,9.005223091662629e-07,8.376951882382855e-06,1.4634146690368652,-0.01611328125,0.0048828125,5.246267578356893e-13,0.001244998330269843,9.54686492219112e-07,0.0011268211065131725,0.24240357706972146,0.2434303184050973
1624634128.6279502,2.6690842977881884e-06,-3.9086636209118274e-08,5.88,5.02,9.005223091662629e-07,8.376951882382855e-06,1.4634146690368652,-0.01611328125,0.0048828125,5.246267578356893e-13,0.001244998330269843,9.54686492219112e-07,0.0011268211065131725,0.24240357706972146,0.2434303184050973
1624634128.6279502,2.6690842977881884e-06,-3.9086636209118274e-08,5.88,5.02,9.005223091662629e-07,8.376951882382855e-06,1.4634146690368652,-0.01611328125,0.0048828125,5.133590534417904e-13,0.001311931332230381,9.54686492219112e-07,0.0011268211065131725,0.24244016259769888,0.2434303184050973
1624634128.65395,2.589426446629463e-06,-3.781901362531679e-08,5.88,5.02,9.005223091662629e-07,8.376951882382855e-06,1.4634146690368652,-0.01611328125,0.0048828125,5.133590534417904e-13,0.001311931332230381,8.721760564494416e-07,0.0011777059830580447,0.24244016259769888,0.24342717776047557
1624634128.65395,2.589426446629463e-06,-3.781901362531679e-08,5.86,5.0,9.005223091662629e-07,8.376951882382855e-06,1.4634146690368652,-0.01611328125,0.0048828125,5.133590534417904e-13,0.001311931332230381,8.721760564494416e-07,0.0011777059830580447,0.24244016259769888,0.24342717776047557
1624634128.65395,2.589426446629463e-06,-3.781901362531679e-08,5.86,5.0,9.005223091662629e-07,8.376951882382855e-06,1.4634146690368652,-0.01611328125,0.0048828125,5.133590534417904e-13,0.001311931332230381,8.721760564494416e-07,0.0011777059830580447,0.24244016259769888,0.24342717776047557
1624634128.65395,2.589426446629463e-06,-3.781901362531679e-08,5.86,5.0,9.005223091662629e-07,8.376951882382855e-06,1.4634146690368652,-0.01611328125,0.0048828125,5.133590534417904e-13,0.001311931332230381,8.721760564494416e-07,0.0011777059830580447,0.24244016259769888,0.24342717776047557
1624634128.6879501,2.5153961489071694e-06,-3.6606124685386043e-08,5.86,5.0,9.005223091662629e-07,8.376951882382855e-06,1.4634146690368652,-0.01611328125,0.0048828125,5.237644357527059e-13,0.0012637355279998786,8.192623265660222e-07,0.001171445619692595,0.2424048770234415,0.24340960274503606
1624634128.6879501,2.5153961489071694e-06,-3.6606124685386043e-08,5.86,5.0,9.005223091662629e-07,8.376951882382855e-06,1.4634146690368652,-0.01611328125,0.0048828125,5.237644357527059e-13,0.0012637355279998786,8.192623265660222e-07,0.001171445619692595,0.2424048770234415,0.24340960274503606
1624634128.6879501,2.5153961489071694e-06,-3.6606124685386043e-08,5.86,5.0,9.005223091662629e-07,8.376951882382855e-06,1.4634146690368652,-0.01611328125,0.0048828125,5.237644357527059e-13,0.0012637355279998786,8.192623265660222e-07,0.001171445619692595,0.2424048770234415,0.24340960274503606
1624634128.6879501,2.5153961489071694e-06,-3.6606124685386043e-08,5.86,5.0,9.005223091662629e-07,8.376951882382855e-06,1.402438998222351,-0.00390625,0.005859375,5.237644357527059e-13,0.0012637355279998786,8.192623265660222e-07,0.001171445619692595,0.2424048770234415,0.24340960274503606
1624634128.6879501,2.5153961489071694e-06,-3.6606124685386043e-08,5.86,5.0,9.005223091662629e-07,8.376951882382855e-06,1.402438998222351,-0.00390625,0.005859375,5.237644357527059e-13,0.0012637355279998786,8.192623265660222e-07,0.001171445619692595,0.2424048770234415,0.24340960274503606
1624634128.6879501,2.5153961489071694e-06,-3.6606124685386043e-08,5.86,5.0,9.005223091662629e-07,8.376951882382855e-06,1.402438998222351,-0.00390625,0.005859375,5.137214170604052e-13,0.0012707445934328463,8.192623265660222e-07,0.001171445619692595,0.2424173593552231,0.24340960274503606
1624634128.75795,2.433965571222879e-06,-3.528246795201412e-08,5.86,5.0,9.005223091662629e-07,8.376951882382855e-06,1.402438998222351,-0.00390625,0.005859375,5.137214170604052e-13,0.0012707445934328463,8.402561963843845e-07,0.0011839550575899105,0.2424173593552231,0.24344304759731603
1624634128.75795,2.433965571222879e-06,-3.528246795201412e-08,5.86,5.0,8.790813694758981e-07,8.177501513273455e-06,1.402438998222351,-0.00390625,0.005859375,5.137214170604052e-13,0.0012707445934328463,8.402561963843845e-07,0.0011839550575899105,0.2424173593552231,0.24344304759731603
1624634128.75795,2.433965571222879e-06,-3.528246795201412e-08,5.84,5.0,8.790813694758981e-07,8.177501513273455e-06,1.402438998222351,-0.00390625,0.005859375,5.137214170604052e-13,0.0012707445934328463,8.402561963843845e-07,0.0011839550575899105,0.2424173593552231,0.24344304759731603
1624634128.75795,2.433965571222879e-06,-3.528246795201412e-08,5.84,5.0,8.790813694758981e-07,8.177501513273455e-06,1.402438998222351,-0.00390625,0.005859375,5.137214170604052e-13,0.0012707445934328463,8.402561963843845e-07,0.0011839550575899105,0.2424173593552231,0.24344304759731603
1624634128.80795,2.354617985090004e-06,-3.39780755307325e-08,5.84,5.0,8.790813694758981e-07,8.177501513273455e-06,1.402438998222351,-0.00390625,0.005859375,5.103993052965099e-13,0.0012035627569887606,8.108284218188812e-07,0.0011494609811821346,0.24240244968776092,0.2434390720664017
1624634128.80795,2.354617985090004e-06,-3.39780755307325e-08,5.84,5.0,8.790813694758981e-07,8.177501513273455e-06,1.3414634466171265,-0.0126953125,0.00732421875,5.103993052965099e-13,0.0012035627569887606,8.108284218188812e-07,0.0011494609811821346,0.24240244968776092,0.2434390720664017
1624634128.80795,2.354617985090004e-06,-3.39780755307325e-08,5.84,5.0,8.790813694758981e-07,8.177501513273455e-06,1.3414634466171265,-0.0126953125,0.00732421875,5.103993052965099e-13,0.0012035627569887606,8.108284218188812e-07,0.0011494609811821346,0.24240244968776092,0.2434390720664017
1624634128.80795,2.354617985090004e-06,-3.39780755307325e-08,5.84,5.0,9.005223091662629e-07,8.376951882382855e-06,1.3414634466171265,-0.0126953125,0.00732421875,5.103993052965099e-13,0.0012035627569887606,8.108284218188812e-07,0.0011494609811821346,0.24240244968776092,0.2434390720664017
1624634128.80795,2.354617985090004e-06,-3.39780755307325e-08,5.84,5.0,9.005223091662629e-07,8.376951882382855e-06,1.3414634466171265,-0.0126953125,0.00732421875,5.103993052965099e-13,0.0012035627569887606,8.108284218188812e-07,0.0011494609811821346,0.24240244968776092,0.2434390720664017
1624634128.80795,2.354617985090004e-06,-3.39780755307325e-08,5.84,5.0,9.005223091662629e-07,8.376951882382855e-06,1.3414634466171265,-0.0126953125,0.00732421875,4.991939616716612e-13,0.0010248072010738045,8.108284218188812e-07,0.0011494609811821346,0.24239589175062767,0.2434390720664017
1624634128.8679502,2.274229795372871e-06,-3.265574317423632e-08,5.84,5.0,9.005223091662629e-07,8.376951882382855e-06,1.3414634466171265,-0.0126953125,0.00732421875,4.991939616716612e-13,0.0010248072010738045,7.98854449120791e-07,0.0010524535188227526,0.24239589175062767,0.24343919562755795
1624634128.8679502,2.274229795372871e-06,-3.265574317423632e-08,5.85,5.0,9.005223091662629e-07,8.376951882382855e-06,1.3414634466171265,-0.0126953125,0.00732421875,4.991939616716612e-13,0.0010248072010738045,7.98854449120791e-07,0.0010524535188227526,0.24239589175062767,0.24343919562755795
1624634128.8679502,2.274229795372871e-06,-3.265574317423632e-08,5.85,5.0,9.005223091662629e-07,8.376951882382855e-06,1.3414634466171265,-0.0126953125,0.00732421875,4.991939616716612e-13,0.0010248072010738045,7.98854449120791e-07,0.0010524535188227526,0.24239589175062767,0.24343919562755795
1624634128.8679502,2.274229795372871e-06,-3.265574317423632e-08,5.85,5.0,9.005223091662629e-07,8.376951882382855e-06,1.3414634466171265,-0.0126953125,0.00732421875,4.991939616716612e-13,0.0010248072010738045,7.98854449120791e-07,0.0010524535188227526,0.24239589175062767,0.24343919562755795
1624634128.9279501,2.1939819173793514e-06,-3.1335284149187344e-08,5.85,5.0,9.005223091662629e-07,8.376951882382855e-06,1.3414634466171265,-0.0126953125,0.00732421875,4.847159355091079e-13,0.000960177655680907,7.821137319159283e-07,0.0009711954932982628,0.24239194167454386,0.24343399498319368
1624634128.9279501,2.1939819173793514e-06,-3.1335284149187344e-08,5.85,5.0,9.005223091662629e-07,8.376951882382855e-06,1.3414634466171265,-0.0126953125,-0.0029296875,4.847159355091079e-13,0.000960177655680907,7.821137319159283e-07,0.0009711954932982628,0.24239194167454386,0.24343399498319368
1624634128.9279501,2.1939819173793514e-06,-3.1335284149187344e-08,5.85,5.0,9.005223091662629e-07,8.376951882382855e-06,1.3414634466171265,-0.0126953125,-0.0029296875,4.847159355091079e-13,0.000960177655680907,7.821137319159283e-07,0.0009711954932982628,0.24239194167454386,0.24343399498319368
1624634128.9279501,2.1939819173793514e-06,-3.1335284149187344e-08,5.85,5.0,9.005223091662629e-07,8.376951882382855e-06,1.3414634466171265,-0.0126953125,-0.0029296875,4.847159355091079e-13,0.000960177655680907,7.821137319159283e-07,0.0009711954932982628,0.24239194167454386,0.24343399498319368
1624634128.9279501,2.1939819173793514e-06,-3.1335284149187344e-08,5.85,5.0,9.005223091662629e-07,8.376951882382855e-06,1.3414634466171265,-0.0126953125,-0.0029296875,4.847159355091079e-13,0.000960177655680907,7.821137319159283e-07,0.0009711954932982628,0.24239194167454386,0.24343399498319368
1624634128.94595,2.131225729627788e-06,-3.0321383371809384e-08,5.85,5.0,9.005223091662629e-07,8.376951882382855e-06,1.3414634466171265,-0.0126953125,-0.0029296875,4.793126995835611e-13,0.0010959735181034268,7.018963954655109e-07,0.0009958256310120335,0.2424157235366953,0.2434120072346149
1624634128.94595,2.131225729627788e-06,-3.0321383371809384e-08,5.85,5.0,9.005223091662629e-07,8.376951882382855e-06,1.3414634466171265,-0.0126953125,-0.0029296875,4.793126995835611e-13,0.0010959735181034268,7.018963954655109e-07,0.0009958256310120335,0.2424157235366953,0.2434120072346149
1624634128.94595,2.131225729627788e-06,-3.0321383371809384e-08,5.85,5.01,9.005223091662629e-07,8.376951882382855e-06,1.3414634466171265,-0.0126953125,-0.0029296875,4.793126995835611e-13,0.0010959735181034268,7.018963954655109e-07,0.0009958256310120335,0.2424157235366953,0.2434120072346149
1624634128.94595,2.131225729627788e-06,-3.0321383371809384e-08,5.85,5.01,9.005223091662629e-07,8.376951882382855e-06,1.3414634466171265,-0.0126953125,-0.0029296875,4.793126995835611e-13,0.0010959735181034268,7.018963954655109e-07,0.0009958256310120335,0.2424157235366953,0.2434120072346149
1624634128.94595,2.131225729627788e-06,-3.0321383371809384e-08,5.85,5.01,9.005223091662629e-07,8.376951882382855e-06,1.3414634466171265,-0.0126953125,-0.0029296875,4.793126995835611e-13,0.0010959735181034268,7.018963954655109e-07,0.0009958256310120335,0.2424157235366953,0.2434120072346149
1624634128.98795,2.0700956603551167e-06,-2.9312360986641004e-08,5.85,5.01,9.005223091662629e-07,8.376951882382855e-06,1.3414634466171265,-0.0126953125,-0.0029296875,4.745824655101307e-13,0.0010470219272149363,6.750221265420714e-07,0.000979395073882429,0.24239463739958805,0.2433953916986382
1624634128.98795,2.0700956603551167e-06,-2.9312360986641004e-08,5.85,5.01,9.005223091662629e-07,8.376951882382855e-06,1.3414634466171265,-0.0126953125,-0.0029296875,4.745824655101307e-13,0.0010470219272149363,6.750221265420714e-07,0.000979395073882429,0.24239463739958805,0.2433953916986382
1624634128.98795,2.0700956603551167e-06,-2.9312360986641004e-08,5.85,5.01,9.005223091662629e-07,8.376951882382855e-06,1.3414634466171265,-0.01806640625,0.0068359375,4.745824655101307e-13,0.0010470219272149363,6.750221265420714e-07,0.000979395073882429,0.24239463739958805,0.2433953916986382
1624634128.98795,2.0700956603551167e-06,-2.9312360986641004e-08,5.85,5.01,9.005223091662629e-07,8.376951882382855e-06,1.3414634466171265,-0.01806640625,0.0068359375,4.745824655101307e-13,0.0010470219272149363,6.750221265420714e-07,0.000979395073882429,0.24239463739958805,0.2433953916986382
1624634128.98795,2.0700956603551167e-06,-2.9312360986641004e-08,5.85,5.01,9.005223091662629e-07,8.376951882382855e-06,1.3414634466171265,-0.01806640625,0.0068359375,4.745824655101307e-13,0.0010470219272149363,6.750221265420714e-07,0.000979395073882429,0.24239463739958805,0.2433953916986382
1624634129.0499501,2.0051370929865447e-06,-2.824265459049303e-08,5.85,5.01,9.005223091662629e-07,8.376951882382855e-06,1.3414634466171265,-0.01806640625,0.0068359375,4.623541112141604e-13,0.0011928028946057963,6.797577430963699e-07,0.0010382151190600987,0.24240082914875133,0.2434043322889104
1624634129.0499501,2.0051370929865447e-06,-2.824265459049303e-08,5.85,5.01,9.005223091662629e-07,8.376951882382855e-06,1.3414634466171265,-0.01806640625,0.0068359375,4.623541112141604e-13,0.0011928028946057963,6.797577430963699e-07,0.0010382151190600987,0.24240082914875133,0.2434043322889104
1624634129.0499501,2.0051370929865447e-06,-2.824265459049303e-08,5.84,5.01,8.790813694758981e-07,8.177501513273455e-06,1.3414634466171265,-0.01806640625,0.0068359375,4.623541112141604e-13,0.0011928028946057963,6.797577430963699e-07,0.0010382151190600987,0.24240082914875133,0.2434043322889104
1624634129.0499501,2.0051370929865447e-06,-2.824265459049303e-08,5.84,5.01,8.790813694758981e-07,8.177501513273455e-06,1.3414634466171265,-0.01806640625,0.0068359375,4.623541112141604e-13,0.0011928028946057963,6.797577430963699e-07,0.0010382151190600987,0.24240082914875133,0.2434043322889104
1624634129.0499501,2.0051370929865447e-06,-2.824265459049303e-08,5.84,5.01,8.790813694758981e-07,8.177501513273455e-06,1.3414634466171265,-0.01806640625,0.0068359375,4.623541112141604e-13,0.0011928028946057963,6.797577430963699e-07,0.0010382151190600987,0.24240082914875133,0.2434043322889104
1624634129.10795,1.939109818907844e-06,-2.71533826234056e-08,5.84,5.01,8.790813694758981e-07,8.177501513273455e-06,1.3414634466171265,-0.01806640625,0.0068359375,4.4860251951579014e-13,0.0011203113939510655,6.703568962458279e-07,0.0010272855244122532,0.24239732700107858,0.24340510560545567
1624634129.10795,1.939109818907844e-06,-2.71533826234056e-08,5.84,5.01,8.790813694758981e-07,8.177501513273455e-06,1.3414634466171265,-0.01806640625,0.0068359375,4.4860251951579014e-13,0.0011203113939510655,6.703568962458279e-07,0.0010272855244122532,0.24239732700107858,0.24340510560545567
1624634129.10795,1.939109818907844e-06,-2.71533826234056e-08,5.84,5.01,8.790813694758981e-07,8.177501513273455e-06,1.402438998222351,-0.01806640625,0.009765625,4.4860251951579014e-13,0.0011203113939510655,6.703568962458279e-07,0.0010272855244122532,0.24239732700107858,0.24340510560545567
1624634129.10795,1.939109818907844e-06,-2.71533826234056e-08,5.84,5.01,9.005223091662629e-07,8.376951882382855e-06,1.402438998222351,-0.01806640625,0.009765625,4.4860251951579014e-13,0.0011203113939510655,6.703568962458279e-07,0.0010272855244122532,0.24239732700107858,0.24340510560545567
1624634129.10795,1.939109818907844e-06,-2.71533826234056e-08,5.84,5.01,9.005223091662629e-07,8.376951882382855e-06,1.402438998222351,-0.01806640625,0.009765625,4.4860251951579014e-13,0.0011203113939510655,6.703568962458279e-07,0.0010272855244122532,0.24239732700107858,0.24340510560545567
1624634129.1679502,1.8724351724573732e-06,-2.605401864423488e-08,5.84,5.01,9.005223091662629e-07,8.376951882382855e-06,1.402438998222351,-0.01806640625,0.009765625,4.374058170710328e-13,0.001071239895768619,6.596243983809794e-07,0.0010040428029409196,0.24239595058124933,0.24340558925512323
1624634129.1679502,1.8724351724573732e-06,-2.605401864423488e-08,5.84,5.01,9.005223091662629e-07,8.376951882382855e-06,1.402438998222351,-0.01806640625,0.009765625,4.374058170710328e-13,0.001071239895768619,6.596243983809794e-07,0.0010040428029409196,0.24239595058124933,0.24340558925512323
1624634129.1679502,1.8724351724573732e-06,-2.605401864423488e-08,5.84,5.01,9.005223091662629e-07,8.376951882382855e-06,1.402438998222351,-0.01806640625,0.009765625,4.374058170710328e-13,0.001071239895768619,6.596243983809794e-07,0.0010040428029409196,0.24239595058124933,0.24340558925512323
1624634129.1679502,1.8724351724573732e-06,-2.605401864423488e-08,5.83,5.02,9.005223091662629e-07,8.376951882382855e-06,1.402438998222351,-0.01806640625,0.009765625,4.374058170710328e-13,0.001071239895768619,6.596243983809794e-07,0.0010040428029409196,0.24239595058124933,0.24340558925512323
1624634129.1679502,1.8724351724573732e-06,-2.605401864423488e-08,5.83,5.02,9.230353725797613e-07,8.586375770391896e-06,1.402438998222351,-0.01806640625,0.009765625,4.374058170710328e-13,0.001071239895768619,6.596243983809794e-07,0.0010040428029409196,0.24239595058124933,0.24340558925512323
1624634129.22795,1.8060287191751942e-06,-2.4959916492433645e-08,5.83,5.02,9.230353725797613e-07,8.586375770391896e-06,1.402438998222351,-0.01806640625,0.009765625,4.2311628024143065e-13,0.0010036095946955221,6.452086074489327e-07,0.0009563531583227297,0.24239310534370018,0.24340212441616918
1624634129.22795,1.8060287191751942e-06,-2.4959916492433645e-08,5.83,5.02,9.230353725797613e-07,8.586375770391896e-06,1.402438998222351,-0.01806640625,0.009765625,4.2311628024143065e-13,0.0010036095946955221,6.452086074489327e-07,0.0009563531583227297,0.24239310534370018,0.24340212441616918
1624634129.22795,1.8060287191751942e-06,-2.4959916492433645e-08,5.83,5.02,9.230353725797613e-07,8.586375770391896e-06,1.402438998222351,-0.01806640625,0.009765625,4.2311628024143065e-13,0.0010036095946955221,6.452086074489327e-07,0.0009563531583227297,0.24239310534370018,0.24340212441616918
1624634129.22795,1.8060287191751942e-06,-2.4959916492433645e-08,5.83,5.02,9.230353725797613e-07,8.586375770391896e-06,1.3414634466171265,-0.01611328125,0.001953125,4.2311628024143065e-13,0.0010036095946955221,6.452086074489327e-07,0.0009563531583227297,0.24239310534370018,0.24340212441616918
1624634129.22795,1.8060287191751942e-06,-2.4959916492433645e-08,5.83,5.02,9.230353725797613e-07,8.586375770391896e-06,1.3414634466171265,-0.01611328125,0.001953125,4.2311628024143065e-13,0.0010036095946955221,6.452086074489327e-07,0.0009563531583227297,0.24239310534370018,0.24340212441616918
1624634129.25795,1.7513220151029306e-06,-2.4087258527022654e-08,5.83,5.02,9.005223091662629e-07,8.376951882382855e-06,1.3414634466171265,-0.01611328125,0.001953125,4.1483483517670747e-13,0.0012014334938347665,5.950228567182371e-07,0.0010338416237064797,0.242434554529926,0.24340248499857023
1624634129.25795,1.7513220151029306e-06,-2.4087258527022654e-08,5.83,5.02,9.005223091662629e-07,8.376951882382855e-06,1.3414634466171265,-0.01611328125,0.001953125,4.1483483517670747e-13,0.0012014334938347665,5.950228567182371e-07,0.0010338416237064797,0.242434554529926,0.24340248499857023
1624634129.25795,1.7513220151029306e-06,-2.4087258527022654e-08,5.83,5.0,9.005223091662629e-07,8.376951882382855e-06,1.3414634466171265,-0.01611328125,0.001953125,4.1483483517670747e-13,0.0012014334938347665,5.950228567182371e-07,0.0010338416237064797,0.242434554529926,0.24340248499857023
1624634129.25795,1.7513220151029306e-06,-2.4087258527022654e-08,5.83,5.0,9.005223091662629e-07,8.376951882382855e-06,1.3414634466171265,-0.01611328125,0.001953125,4.1483483517670747e-13,0.0012014334938347665,5.950228567182371e-07,0.0010338416237064797,0.242434554529926,0.24340248499857023
1624634129.25795,1.7513220151029306e-06,-2.4087258527022654e-08,5.83,5.0,9.005223091662629e-07,8.376951882382855e-06,1.3414634466171265,-0.01611328125,0.001953125,4.169325180398121e-13,0.0011621864487866287,5.950228567182371e-07,0.0010338416237064797,0.2423988727111258,0.24340248499857023
1624634129.28795,1.701578458035909e-06,-2.3264146700221742e-08,5.83,5.0,9.005223091662629e-07,8.376951882382855e-06,1.3414634466171265,-0.01611328125,0.001953125,4.169325180398121e-13,0.0011621864487866287,5.528026687051538e-07,0.0010426214896305849,0.2423988727111258,0.24337785224707562
1624634129.28795,1.701578458035909e-06,-2.3264146700221742e-08,5.83,5.0,9.005223091662629e-07,8.376951882382855e-06,1.3414634466171265,-0.00390625,-0.00244140625,4.169325180398121e-13,0.0011621864487866287,5.528026687051538e-07,0.0010426214896305849,0.2423988727111258,0.24337785224707562
1624634129.28795,1.701578458035909e-06,-2.3264146700221742e-08,5.83,5.0,9.005223091662629e-07,8.376951882382855e-06,1.3414634466171265,-0.00390625,-0.00244140625,4.169325180398121e-13,0.0011621864487866287,5.528026687051538e-07,0.0010426214896305849,0.2423988727111258,0.24337785224707562
1624634129.28795,1.701578458035909e-06,-2.3264146700221742e-08,5.83,5.0,9.005223091662629e-07,8.376951882382855e-06,1.3414634466171265,-0.00390625,-0.00244140625,4.169325180398121e-13,0.0011621864487866287,5.528026687051538e-07,0.0010426214896305849,0.2423988727111258,0.24337785224707562
1624634129.28795,1.701578458035909e-06,-2.3264146700221742e-08,5.83,5.0,9.005223091662629e-07,8.376951882382855e-06,1.3414634466171265,-0.00390625,-0.00244140625,4.169325180398121e-13,0.0011621864487866287,5.528026687051538e-07,0.0010426214896305849,0.2423988727111258,0.24337785224707562
1624634129.34795,1.6490050262792634e-06,-2.2395749790003387e-08,5.83,5.0,9.005223091662629e-07,8.376951882382855e-06,1.3414634466171265,-0.00390625,-0.00244140625,4.0328604197435355e-13,0.0009386584683820198,5.528026687051538e-07,0.0010426214896305849,0.24239191961960188,0.24337785224707562
1624634129.34795,1.6490050262792634e-06,-2.2395749790003387e-08,5.83,5.0,9.005223091662629e-07,8.376951882382855e-06,1.3414634466171265,-0.00390625,-0.00244140625,4.0328604197435355e-13,0.0009386584683820198,5.528026687051538e-07,0.0010426214896305849,0.24239191961960188,0.24337785224707562
1624634129.34795,1.6490050262792634e-06,-2.2395749790003387e-08,5.83,4.99,9.230353725797613e-07,8.586375770391896e-06,1.3414634466171265,-0.00390625,-0.00244140625,4.0328604197435355e-13,0.0009386584683820198,5.528026687051538e-07,0.0010426214896305849,0.24239191961960188,0.24337785224707562
1624634129.34795,1.6490050262792634e-06,-2.2395749790003387e-08,5.83,4.99,9.230353725797613e-07,8.586375770391896e-06,1.3414634466171265,-0.00390625,-0.00244140625,4.0328604197435355e-13,0.0009386584683820198,5.548378522078948e-07,0.0009630236807332924,0.24239191961960188,0.2433777901065091
1624634129.34795,1.6490050262792634e-06,-2.2395749790003387e-08,5.83,4.99,9.230353725797613e-07,8.586375770391896e-06,1.3414634466171265,-0.00390625,-0.00244140625,4.0328604197435355e-13,0.0009386584683820198,5.548378522078948e-07,0.0009630236807332924,0.24239191961960188,0.2433777901065091
1624634129.4079502,1.5948671507198967e-06,-2.1503230114671662e-08,5.83,4.99,9.230353725797613e-07,8.586375770391896e-06,1.3414634466171265,-0.00390625,-0.00244140625,3.8708495876837585e-13,0.0008797614959071008,5.548378522078948e-07,0.0009630236807332924,0.24238809318718763,0.2433777901065091
1624634129.4079502,1.5948671507198967e-06,-2.1503230114671662e-08,5.83,4.99,9.230353725797613e-07,8.586375770391896e-06,1.402438998222351,-0.02197265625,0.01220703125,3.8708495876837585e-13,0.0008797614959071008,5.548378522078948e-07,0.0009630236807332924,0.24238809318718763,0.2433777901065091
1624634129.4079502,1.5948671507198967e-06,-2.1503230114671662e-08,5.83,4.99,9.230353725797613e-07,8.586375770391896e-06,1.402438998222351,-0.02197265625,0.01220703125,3.8708495876837585e-13,0.0008797614959071008,5.548378522078948e-07,0.0009630236807332924,0.24238809318718763,0.2433777901065091
1624634129.4079502,1.5948671507198967e-06,-2.1503230114671662e-08,5.83,4.99,9.005223091662629e-07,8.376951882382855e-06,1.402438998222351,-0.02197265625,0.01220703125,3.8708495876837585e-13,0.0008797614959071008,5.507007021217365e-07,0.0008934338520064655,0.24238809318718763,0.2433733598366678
1624634129.4079502,1.5948671507198967e-06,-2.1503230114671662e-08,5.83,4.99,9.005223091662629e-07,8.376951882382855e-06,1.402438998222351,-0.02197265625,0.01220703125,3.8708495876837585e-13,0.0008797614959071008,5.507007021217365e-07,0.0008934338520064655,0.24238809318718763,0.2433733598366678
1624634129.46795,1.5401450281206058e-06,-2.0602738248435003e-08,5.83,4.99,9.005223091662629e-07,8.376951882382855e-06,1.402438998222351,-0.02197265625,0.01220703125,3.7630369443332907e-13,0.001038422221300836,5.507007021217365e-07,0.0008934338520064655,0.24239280773463864,0.2433733598366678
1624634129.46795,1.5401450281206058e-06,-2.0602738248435003e-08,5.83,4.99,9.005223091662629e-07,8.376951882382855e-06,1.402438998222351,-0.02197265625,0.01220703125,3.7630369443332907e-13,0.001038422221300836,5.507007021217365e-07,0.0008934338520064655,0.24239280773463864,0.2433733598366678
1624634129.46795,1.5401450281206058e-06,-2.0602738248435003e-08,5.82,4.99,9.005223091662629e-07,8.376951882382855e-06,1.402438998222351,-0.02197265625,0.01220703125,3.7630369443332907e-13,0.001038422221300836,5.507007021217365e-07,0.0008934338520064655,0.24239280773463864,0.2433733598366678
1624634129.46795,1.5401450281206058e-06,-2.0602738248435003e-08,5.82,4.99,9.005223091662629e-07,8.376951882382855e-06,1.402438998222351,-0.02197265625,0.01220703125,3.7630369443332907e-13,0.001038422221300836,5.42084547875602e-07,0.0009156240358236963,0.24239280773463864,0.24337089773315307
1624634129.46795,1.5401450281206058e-06,-2.0602738248435003e-08,5.82,4.99,9.005223091662629e-07,8.376951882382855e-06,1.402438998222351,-0.02197265625,0.01220703125,3.7630369443332907e-13,0.001038422221300836,5.42084547875602e-07,0.0009156240358236963,0.24239280773463864,0.24337089773315307
1624634129.52795,1.485607258274252e-06,-1.9707155454898054e-08,5.82,4.99,9.005223091662629e-07,8.376951882382855e-06,1.402438998222351,-0.02197265625,0.01220703125,3.6249531509472865e-13,0.0009729104071141297,5.42084547875602e-07,0.0009156240358236963,0.242390924277584,0.24337089773315307
1624634129.52795,1.485607258274252e-06,-1.9707155454898054e-08,5.82,4.99,9.005223091662629e-07,8.376951882382855e-06,1.402438998222351,-0.02197265625,0.01220703125,3.6249531509472865e-13,0.0009729104071141297,5.42084547875602e-07,0.0009156240358236963,0.242390924277584,0.24337089773315307
1624634129.52795,1.485607258274252e-06,-1.9707155454898054e-08,5.82,4.99,9.005223091662629e-07,8.376951882382855e-06,1.402438998222351,-0.0185546875,0.01220703125,3.6249531509472865e-13,0.0009729104071141297,5.42084547875602e-07,0.0009156240358236963,0.242390924277584,0.24337089773315307
1624634129.52795,1.485607258274252e-06,-1.9707155454898054e-08,5.82,4.99,9.005223091662629e-07,8.376951882382855e-06,1.402438998222351,-0.0185546875,0.01220703125,3.6249531509472865e-13,0.0009729104071141297,5.303798976972188e-07,0.0008909651535273178,0.242390924277584,0.24336593099044693
1624634129.52795,1.485607258274252e-06,-1.9707155454898054e-08,5.82,4.99,9.005223091662629e-07,8.376951882382855e-06,1.402438998222351,-0.0185546875,0.01220703125,3.6249531509472865e-13,0.0009729104071141297,5.303798976972188e-07,0.0008909651535273178,0.242390924277584,0.24336593099044693
1624634129.5499501,1.4422168706850558e-06,-1.9013033085967485e-08,5.82,4.99,9.005223091662629e-07,8.376951882382855e-06,1.402438998222351,-0.0185546875,0.01220703125,3.5497009998434674e-13,0.0009776717026346144,5.303798976972188e-07,0.0008909651535273178,0.24241310973389804,0.24336593099044693
1624634129.5499501,1.4422168706850558e-06,-1.9013033085967485e-08,5.82,4.99,9.005223091662629e-07,8.376951882382855e-06,1.402438998222351,-0.0185546875,0.01220703125,3.5497009998434674e-13,0.0009776717026346144,5.303798976972188e-07,0.0008909651535273178,0.24241310973389804,0.24336593099044693
1624634129.5499501,1.4422168706850558e-06,-1.9013033085967485e-08,5.81,5.0,9.005223091662629e-07,8.376951882382855e-06,1.402438998222351,-0.0185546875,0.01220703125,3.5497009998434674e-13,0.0009776717026346144,4.802930410744368e-07,0.0009027942041522587,0.24241310973389804,0.24334990585830776
1624634129.5499501,1.4422168706850558e-06,-1.9013033085967485e-08,5.81,5.0,9.005223091662629e-07,8.376951882382855e-06,1.402438998222351,-0.0185546875,0.01220703125,3.5497009998434674e-13,0.0009776717026346144,4.802930410744368e-07,0.0009027942041522587,0.24241310973389804,0.24334990585830776
1624634129.5499501,1.4422168706850558e-06,-1.9013033085967485e-08,5.81,5.0,9.005223091662629e-07,8.376951882382855e-06,1.402438998222351,-0.0185546875,0.01220703125,3.5497009998434674e-13,0.0009776717026346144,4.802930410744368e-07,0.0009027942041522587,0.24241310973389804,0.24334990585830776
1624634129.58795,1.4009356262500349e-06,-1.8334014363308646e-08,5.81,5.0,9.005223091662629e-07,8.376951882382855e-06,1.402438998222351,-0.0185546875,0.01220703125,3.508027744458072e-13,0.0009378185468939874,4.802930410744368e-07,0.0009027942041522587,0.24238983756049634,0.24334990585830776
1624634129.58795,1.4009356262500349e-06,-1.8334014363308646e-08,5.81,5.0,9.005223091662629e-07,8.376951882382855e-06,1.402438998222351,-0.0185546875,0.01220703125,3.508027744458072e-13,0.0009378185468939874,4.802930410744368e-07,0.0009027942041522587,0.24238983756049634,0.24334990585830776
1624634129.58795,1.4009356262500349e-06,-1.8334014363308646e-08,5.81,5.0,9.005223091662629e-07,8.376951882382855e-06,1.4634146690368652,-0.01708984375,0.0029296875,3.508027744458072e-13,0.0009378185468939874,4.802930410744368e-07,0.0009027942041522587,0.24238983756049634,0.24334990585830776
1624634129.58795,1.4009356262500349e-06,-1.8334014363308646e-08,5.81,5.0,9.005223091662629e-07,8.376951882382855e-06,1.4634146690368652,-0.01708984375,0.0029296875,3.508027744458072e-13,0.0009378185468939874,4.564852972442488e-07,0.0008821257383581655,0.24238983756049634,0.24332908329108763
1624634129.58795,1.4009356262500349e-06,-1.8334014363308646e-08,5.81,5.0,9.005223091662629e-07,8.376951882382855e-06,1.4634146690368652,-0.01708984375,0.0029296875,3.508027744458072e-13,0.0009378185468939874,4.564852972442488e-07,0.0008821257383581655,0.24238983756049634,0.24332908329108763
1624634129.65395,1.3562978105631564e-06,-1.7607135089516106e-08,5.81,5.0,9.005223091662629e-07,8.376951882382855e-06,1.4634146690368652,-0.01708984375,0.0029296875,3.3884116321277323e-13,0.001089653207489375,4.564852972442488e-07,0.0008821257383581655,0.24240018995725354,0.24332908329108763
1624634129.65395,1.3562978105631564e-06,-1.7607135089516106e-08,5.81,5.0,9.005223091662629e-07,8.376951882382855e-06,1.4634146690368652,-0.01708984375,0.0029296875,3.3884116321277323e-13,0.001089653207489375,4.564852972442488e-07,0.0008821257383581655,0.24240018995725354,0.24332908329108763
1624634129.65395,1.3562978105631564e-06,-1.7607135089516106e-08,5.82,5.0,9.005223091662629e-07,8.376951882382855e-06,1.4634146690368652,-0.01708984375,0.0029296875,3.3884116321277323e-13,0.001089653207489375,4.6395526641281285e-07,0.000942693569190242,0.24240018995725354,0.2433427382130223
1624634129.65395,1.3562978105631564e-06,-1.7607135089516106e-08,5.82,5.0,9.005223091662629e-07,8.376951882382855e-06,1.4634146690368652,-0.01708984375,0.0029296875,3.3884116321277323e-13,0.001089653207489375,4.6395526641281285e-07,0.000942693569190242,0.24240018995725354,0.2433427382130223
1624634129.65395,1.3562978105631564e-06,-1.7607135089516106e-08,5.82,5.0,9.005223091662629e-07,8.376951882382855e-06,1.4634146690368652,-0.01708984375,0.0029296875,3.282181248403948e-13,0.0010277553232215506,4.6395526641281285e-07,0.000942693569190242,0.2423928914112968,0.2433427382130223
1624634129.70795,1.3118747185230603e-06,-1.6880184023079373e-08,5.82,5.0,9.005223091662629e-07,8.376951882382855e-06,1.4634146690368652,-0.01708984375,0.0029296875,3.282181248403948e-13,0.0010277553232215506,4.6395526641281285e-07,0.000942693569190242,0.2423928914112968,0.2433427382130223
1624634129.70795,1.3118747185230603e-06,-1.6880184023079373e-08,5.82,5.0,9.005223091662629e-07,8.376951882382855e-06,1.4634146690368652,-0.01708984375,0.0029296875,3.282181248403948e-13,0.0010277553232215506,4.6395526641281285e-07,0.000942693569190242,0.2423928914112968,0.2433427382130223
1624634129.70795,1.3118747185230603e-06,-1.6880184023079373e-08,5.82,5.0,9.005223091662629e-07,8.376951882382855e-06,1.4634146690368652,-0.01708984375,0.0029296875,3.282181248403948e-13,0.0010277553232215506,4.5259177791071536e-07,0.0009352457850025958,0.2423928914112968,0.2433378216943583
1624634129.70795,1.3118747185230603e-06,-1.6880184023079373e-08,5.82,5.0,9.005223091662629e-07,8.376951882382855e-06,1.4634146690368652,-0.01708984375,0.0029296875,3.282181248403948e-13,0.0010277553232215506,4.5259177791071536e-07,0.0009352457850025958,0.2423928914112968,0.2433378216943583
1624634129.70795,1.3118747185230603e-06,-1.6880184023079373e-08,5.82,5.0,9.005223091662629e-07,8.376951882382855e-06,1.3414634466171265,-0.02001953125,0.0029296875,3.148998738587524e-13,0.0009618092445738965,4.5259177791071536e-07,0.0009352457850025958,0.24239073524906982,0.2433378216943583
1624634129.768377,1.2668639822198807e-06,-1.614618269685691e-08,5.82,5.0,9.005223091662629e-07,8.376951882382855e-06,1.3414634466171265,-0.02001953125,0.0029296875,3.148998738587524e-13,0.0009618092445738965,4.5259177791071536e-07,0.0009352457850025958,0.24239073524906982,0.2433378216943583
1624634129.768377,1.2668639822198807e-06,-1.614618269685691e-08,5.81,5.01,9.005223091662629e-07,8.376951882382855e-06,1.3414634466171265,-0.02001953125,0.0029296875,3.148998738587524e-13,0.0009618092445738965,4.460461950464591e-07,0.0008976853187729253,0.24239073524906982,0.24333577593795816
1624634129.768377,1.2668639822198807e-06,-1.614618269685691e-08,5.81,5.01,9.005223091662629e-07,8.376951882382855e-06,1.3414634466171265,-0.02001953125,0.0029296875,3.148998738587524e-13,0.0009618092445738965,4.460461950464591e-07,0.0008976853187729253,0.24239073524906982,0.24333577593795816
1624634129.768377,1.2668639822198807e-06,-1.614618269685691e-08,5.81,5.01,9.005223091662629e-07,8.376951882382855e-06,1.3414634466171265,-0.02001953125,0.0029296875,3.148998738587524e-13,0.0009618092445738965,4.460461950464591e-07,0.0008976853187729253,0.24239073524906982,0.24333577593795816
1624634129.768377,1.2668639822198807e-06,-1.614618269685691e-08,5.81,5.01,9.005223091662629e-07,8.376951882382855e-06,1.3414634466171265,-0.02001953125,0.0029296875,3.148998738587524e-13,0.0009618092445738965,4.460461950464591e-07,0.0008976853187729253,0.24239073524906982,0.24333577593795816
1624634129.828377,1.2220082643274725e-06,-1.5417171411022354e-08,5.81,5.01,9.005223091662629e-07,8.376951882382855e-06,1.402438998222351,-0.01318359375,0.00732421875,3.059336374449851e-13,0.0010600281982195983,4.460461950464591e-07,0.0008976853187729253,0.2423945992105925,0.24333577593795816
1624634129.828377,1.2220082643274725e-06,-1.5417171411022354e-08,5.81,5.01,9.005223091662629e-07,8.376951882382855e-06,1.402438998222351,-0.01318359375,0.00732421875,3.059336374449851e-13,0.0010600281982195983,4.460461950464591e-07,0.0008976853187729253,0.2423945992105925,0.24333577593795816
1624634129.828377,1.2220082643274725e-06,-1.5417171411022354e-08,5.81,5.01,9.005223091662629e-07,8.376951882382855e-06,1.402438998222351,-0.01318359375,0.00732421875,3.059336374449851e-13,0.0010600281982195983,4.460461950464591e-07,0.0008976853187729253,0.2423945992105925,0.24333577593795816
1624634129.828377,1.2220082643274725e-06,-1.5417171411022354e-08,5.81,5.01,9.005223091662629e-07,8.376951882382855e-06,1.402438998222351,-0.01318359375,0.00732421875,3.059336374449851e-13,0.0010600281982195983,4.460461950464591e-07,0.0008976853187729253,0.2423945992105925,0.24333577593795816
1624634129.828377,1.2220082643274725e-06,-1.5417171411022354e-08,5.81,5.01,9.005223091662629e-07,8.376951882382855e-06,1.402438998222351,-0.01318359375,0.00732421875,3.059336374449851e-13,0.0010600281982195983,4.460461950464591e-07,0.0008976853187729253,0.2423945992105925,0.24333577593795816
1624634129.8423772,0.0004261808255169161,-1.4867915552435637e-08,5.81,5.01,0.0021307740826159716,-0.016338801011443138,1.402438998222351,-0.01318359375,0.00732421875,0.005600070953670101,0.0009492790241781941,4.364089207469846e-07,0.0009123376774294842,0.24240525662046683,0.24333421854006881
1624634129.8423772,0.0004261808255169161,-1.4867915552435637e-08,5.81,5.01,0.0021307740826159716,-0.016338801011443138,1.402438998222351,-0.01318359375,0.00732421875,0.005600070953670101,0.0009492790241781941,4.364089207469846e-07,0.0009123376774294842,0.24240525662046683,0.24333421854006881
1624634129.8423772,0.0004261808255169161,-1.4867915552435637e-08,5.81,4.99,0.0021307740826159716,-0.016338801011443138,1.402438998222351,-0.01318359375,0.00732421875,0.005600070953670101,0.0009492790241781941,4.364089207469846e-07,0.0009123376774294842,0.24240525662046683,0.24333421854006881
1624634129.8423772,0.0004261808255169161,-1.4867915552435637e-08,5.81,4.99,0.0021307740826159716,-0.016338801011443138,1.402438998222351,-0.01318359375,0.00732421875,0.005600070953670101,0.0009492790241781941,4.364089207469846e-07,0.0009123376774294842,0.24240525662046683,0.24333421854006881
1624634129.8423772,0.0004261808255169161,-1.4867915552435637e-08,5.81,4.99,0.0021307740826159716,-0.016338801011443138,1.402438998222351,-0.01318359375,0.00732421875,0.023374286654070618,0.0008955467367296151,0.000811319461686665,0.0009037101763654903,0.24220437741509943,0.2433064575875975
1624634129.8883772,0.0021724429431375335,-1.0197730780489077e-08,5.81,4.99,0.052541881799697876,-0.16452814638614655,1.402438998222351,-0.01318359375,0.00732421875,0.023374286654070618,0.0008955467367296151,0.000811319461686665,0.0009037101763654903,0.24220437741509943,0.2433064575875975
1624634129.8883772,0.0021724429431375335,-1.0197730780489077e-08,5.81,4.99,0.052541881799697876,-0.16452814638614655,1.7682926654815674,-0.02587890625,-0.0830078125,0.023374286654070618,0.0008955467367296151,0.0041563977929602956,0.0008635551454367928,0.24220437741509943,0.24328294487942706
1624634129.8883772,0.0021724429431375335,-1.0197730780489077e-08,5.81,4.99,0.052541881799697876,-0.16452814638614655,1.7682926654815674,-0.02587890625,-0.0830078125,0.023374286654070618,0.0008955467367296151,0.0041563977929602956,0.0008635551454367928,0.24220437741509943,0.24328294487942706
1624634129.8883772,0.0021724429431375335,-1.0197730780489077e-08,5.81,4.99,0.052541881799697876,-0.16452814638614655,1.7682926654815674,-0.02587890625,-0.0830078125,0.023374286654070618,0.0008955467367296151,0.0041563977929602956,0.0008635551454367928,0.24220437741509943,0.24328294487942706
1624634129.8883772,0.0021724429431375335,-1.0197730780489077e-08,5.81,4.99,0.052541881799697876,-0.16452814638614655,1.7682926654815674,-0.02587890625,-0.0830078125,0.04591304844028867,-0.006488419949823011,0.0041563977929602956,0.0008635551454367928,0.23707879385884834,0.24328294487942706
1624634129.9483771,0.005533439336791291,-3.4261000960885946e-07,5.81,4.99,0.052541881799697876,-0.16452814638614655,1.7682926654815674,-0.02587890625,-0.0830078125,0.04591304844028867,-0.006488419949823011,0.0041563977929602956,0.0008635551454367928,0.23707879385884834,0.24328294487942706
1624634129.9483771,0.005533439336791291,-3.4261000960885946e-07,5.81,4.99,0.1183931976556778,0.05365763604640961,1.7682926654815674,-0.02587890625,-0.0830078125,0.04591304844028867,-0.006488419949823011,0.0041563977929602956,0.0008635551454367928,0.23707879385884834,0.24328294487942706
1624634129.9483771,0.005533439336791291,-3.4261000960885946e-07,5.81,4.99,0.1183931976556778,0.05365763604640961,1.7682926654815674,-0.02587890625,-0.0830078125,0.04591304844028867,-0.006488419949823011,0.0041563977929602956,0.0008635551454367928,0.23707879385884834,0.24328294487942706
1624634129.9483771,0.005533439336791291,-3.4261000960885946e-07,5.81,4.99,0.1183931976556778,0.05365763604640961,1.7682926654815674,-0.02587890625,-0.0830078125,0.04591304844028867,-0.006488419949823011,0.0041563977929602956,0.0008635551454367928,0.23707879385884834,0.24328294487942706
1624634130.008377,0.010339954042503943,-2.610454576029602e-06,5.81,4.99,0.1183931976556778,0.05365763604640961,1.7682926654815674,-0.02587890625,-0.0830078125,0.06882863241004802,-0.0062640424448042326,0.01068328675183279,-0.0025489475382890906,0.2332027140339863,0.2427725026750137
1624634130.008377,0.010339954042503943,-2.610454576029602e-06,5.81,4.99,0.1183931976556778,0.05365763604640961,1.7682926654815674,-0.02587890625,-0.0830078125,0.06882863241004802,-0.0062640424448042326,0.01068328675183279,-0.0025489475382890906,0.2332027140339863,0.2427725026750137
1624634130.008377,0.010339954042503943,-2.610454576029602e-06,5.81,4.99,0.1183931976556778,0.05365763604640961,-1.8292683362960815,-0.09228515625,-0.27490234375,0.06882863241004802,-0.0062640424448042326,0.01068328675183279,-0.0025489475382890906,0.2332027140339863,0.2427725026750137
1624634130.008377,0.010339954042503943,-2.610454576029602e-06,5.81,4.99,0.219269797205925,0.04885521158576012,-1.8292683362960815,-0.09228515625,-0.27490234375,0.06882863241004802,-0.0062640424448042326,0.01068328675183279,-0.0025489475382890906,0.2332027140339863,0.2427725026750137
1624634130.008377,0.010339954042503943,-2.610454576029602e-06,5.81,4.99,0.219269797205925,0.04885521158576012,-1.8292683362960815,-0.09228515625,-0.27490234375,0.06882863241004802,-0.0062640424448042326,0.01068328675183279,-0.0025489475382890906,0.2332027140339863,0.2427725026750137
1624634130.068377,0.016543372448201477,-6.37330709064643e-06,5.81,4.99,0.219269797205925,0.04885521158576012,-1.8292683362960815,-0.09228515625,-0.27490234375,0.09386647210663517,-0.0004927301847835596,0.020168128878659933,-0.004277500198873898,0.2339324594386269,0.24198569863054584
1624634130.068377,0.016543372448201477,-6.37330709064643e-06,5.81,4.99,0.219269797205925,0.04885521158576012,-1.8292683362960815,-0.09228515625,-0.27490234375,0.09386647210663517,-0.0004927301847835596,0.020168128878659933,-0.004277500198873898,0.2339324594386269,0.24198569863054584
1624634130.068377,0.016543372448201477,-6.37330709064643e-06,5.81,4.99,0.219269797205925,0.04885521158576012,-1.8292683362960815,-0.09228515625,-0.27490234375,0.09386647210663517,-0.0004927301847835596,0.020168128878659933,-0.004277500198873898,0.2339324594386269,0.24198569863054584
1624634130.068377,0.016543372448201477,-6.37330709064643e-06,5.83,5.01,0.219269797205925,0.04885521158576012,-1.8292683362960815,-0.09228515625,-0.27490234375,0.09386647210663517,-0.0004927301847835596,0.020168128878659933,-0.004277500198873898,0.2339324594386269,0.24198569863054584
1624634130.068377,0.016543372448201477,-6.37330709064643e-06,5.83,5.01,0.3349864184856415,0.018449733033776283,-1.8292683362960815,-0.09228515625,-0.27490234375,0.09386647210663517,-0.0004927301847835596,0.03261596492392243,-0.0029556296307818673,0.2339324594386269,0.2413786562057568
1624634130.1283772,0.022093261609898093,-9.02642229193931e-06,5.83,5.01,0.3349864184856415,0.018449733033776283,-1.8292683362960815,-0.09228515625,-0.27490234375,0.09805754769249214,-0.00038656622512997545,0.03261596492392243,-0.0029556296307818673,0.2353400000006823,0.2413786562057568
1624634130.1283772,0.022093261609898093,-9.02642229193931e-06,5.83,5.01,0.3349864184856415,0.018449733033776283,-1.8292683362960815,-0.09228515625,-0.27490234375,0.09805754769249214,-0.00038656622512997545,0.04420645622765699,-0.0022872502340613565,0.2353400000006823,0.2409060996533545
1624634130.1283772,0.022093261609898093,-9.02642229193931e-06,5.83,5.01,0.3349864184856415,0.018449733033776283,-1.8292683362960815,-0.09228515625,-0.27490234375,0.09805754769249214,-0.00038656622512997545,0.04420645622765699,-0.0022872502340613565,0.2353400000006823,0.2409060996533545
1624634130.1283772,0.022093261609898093,-9.02642229193931e-06,5.83,5.01,0.3349864184856415,0.018449733033776283,-0.060975611209869385,0.06494140625,-0.38916015625,0.09805754769249214,-0.00038656622512997545,0.04420645622765699,-0.0022872502340613565,0.2353400000006823,0.2409060996533545
1624634130.1283772,0.022093261609898093,-9.02642229193931e-06,5.83,5.01,0.3349864184856415,0.018449733033776283,-0.060975611209869385,0.06494140625,-0.38916015625,0.09805754769249214,-0.00038656622512997545,0.04420645622765699,-0.0022872502340613565,0.2353400000006823,0.2409060996533545
1624634130.154377,0.026036196419110934,-1.1031710251791057e-05,5.83,5.01,0.4406394958496094,0.015307825058698654,-0.060975611209869385,0.06494140625,-0.38916015625,0.09550807240806214,0.007393022186392063,0.04420645622765699,-0.0022872502340613565,0.23572565812146812,0.2409060996533545
1624634130.154377,0.026036196419110934,-1.1031710251791057e-05,5.83,5.01,0.4406394958496094,0.015307825058698654,-0.060975611209869385,0.06494140625,-0.38916015625,0.09550807240806214,0.007393022186392063,0.04420645622765699,-0.0022872502340613565,0.23572565812146812,0.2409060996533545
1624634130.154377,0.026036196419110934,-1.1031710251791057e-05,5.82,4.98,0.4406394958496094,0.015307825058698654,-0.060975611209869385,0.06494140625,-0.38916015625,0.09550807240806214,0.007393022186392063,0.04420645622765699,-0.0022872502340613565,0.23572565812146812,0.2409060996533545
1624634130.154377,0.026036196419110934,-1.1031710251791057e-05,5.82,4.98,0.4406394958496094,0.015307825058698654,-0.060975611209869385,0.06494140625,-0.38916015625,0.09550807240806214,0.007393022186392063,0.04420645622765699,-0.0022872502340613565,0.23572565812146812,0.2409060996533545
1624634130.154377,0.026036196419110934,-1.1031710251791057e-05,5.82,4.98,0.4406394958496094,0.015307825058698654,-0.060975611209869385,0.06494140625,-0.38916015625,0.09550807240806214,0.007393022186392063,0.052304970719415034,0.00146697263990095,0.23572565812146812,0.24092221472451492
1624634130.1883771,0.03027195625434528,-1.0213337744075795e-05,5.82,4.98,0.4406394958496094,0.015307825058698654,-0.060975611209869385,0.06494140625,-0.38916015625,0.10816861489065052,0.007195125816595396,0.052304970719415034,0.00146697263990095,0.2371371474420057,0.24092221472451492
1624634130.1883771,0.03027195625434528,-1.0213337744075795e-05,5.82,4.98,0.5114907026290894,0.016277583315968513,-0.060975611209869385,0.06494140625,-0.38916015625,0.10816861489065052,0.007195125816595396,0.052304970719415034,0.00146697263990095,0.2371371474420057,0.24092221472451492
1624634130.1883771,0.03027195625434528,-1.0213337744075795e-05,5.82,4.98,0.5114907026290894,0.016277583315968513,-0.060975611209869385,0.06494140625,-0.38916015625,0.10816861489065052,0.007195125816595396,0.052304970719415034,0.00146697263990095,0.2371371474420057,0.24092221472451492
1624634130.1883771,0.03027195625434528,-1.0213337744075795e-05,5.82,4.98,0.5114907026290894,0.016277583315968513,2.1341464519500732,-0.12060546875,0.3857421875,0.10816861489065052,0.007195125816595396,0.052304970719415034,0.00146697263990095,0.2371371474420057,0.24092221472451492
1624634130.1883771,0.03027195625434528,-1.0213337744075795e-05,5.82,4.98,0.5114907026290894,0.016277583315968513,2.1341464519500732,-0.12060546875,0.3857421875,0.10816861489065052,0.007195125816595396,0.06126024884548355,0.00324484492914492,0.2371371474420057,0.2408657616695351
1624634130.258377,0.035051546716713435,-5.571209616584996e-06,5.82,4.98,0.5114907026290894,0.016277583315968513,2.1341464519500732,-0.12060546875,0.3857421875,0.12183891084509602,0.018613026476053958,0.06126024884548355,0.00324484492914492,0.23892617670402944,0.2408657616695351
1624634130.258377,0.035051546716713435,-5.571209616584996e-06,5.82,4.98,0.5114907026290894,0.016277583315968513,2.1341464519500732,-0.12060546875,0.3857421875,0.12183891084509602,0.018613026476053958,0.06126024884548355,0.00324484492914492,0.23892617670402944,0.2408657616695351
1624634130.258377,0.035051546716713435,-5.571209616584996e-06,5.84,4.94,0.5473839640617371,-0.016252776607871056,2.1341464519500732,-0.12060546875,0.3857421875,0.12183891084509602,0.018613026476053958,0.06126024884548355,0.00324484492914492,0.23892617670402944,0.2408657616695351
1624634130.258377,0.035051546716713435,-5.571209616584996e-06,5.84,4.94,0.5473839640617371,-0.016252776607871056,2.1341464519500732,-0.12060546875,0.3857421875,0.12183891084509602,0.018613026476053958,0.07248719201879038,0.009983225974860621,0.23892617670402944,0.24140822530965475
1624634130.258377,0.035051546716713435,-5.571209616584996e-06,5.84,4.94,0.5473839640617371,-0.016252776607871056,2.1341464519500732,-0.12060546875,0.3857421875,0.12183891084509602,0.018613026476053958,0.07248719201879038,0.009983225974860621,0.23892617670402944,0.24140822530965475
1624634130.308377,0.040540435640326895,1.1083747789322612e-06,5.84,4.94,0.5473839640617371,-0.016252776607871056,2.1341464519500732,-0.12060546875,0.3857421875,0.14082371085594014,0.017661090038569218,0.07248719201879038,0.009983225974860621,0.23937053799473013,0.24140822530965475
1624634130.308377,0.040540435640326895,1.1083747789322612e-06,5.84,4.94,0.5473839640617371,-0.016252776607871056,-1.7682926654815674,-0.06494140625,-0.1162109375,0.14082371085594014,0.017661090038569218,0.07248719201879038,0.009983225974860621,0.23937053799473013,0.24140822530965475
1624634130.308377,0.040540435640326895,1.1083747789322612e-06,5.84,4.94,0.5404720902442932,0.03275229036808014,-1.7682926654815674,-0.06494140625,-0.1162109375,0.14082371085594014,0.017661090038569218,0.08469954320144582,0.012663256171205292,0.23937053799473013,0.24190615227441314
1624634130.308377,0.040540435640326895,1.1083747789322612e-06,5.84,4.94,0.5404720902442932,0.03275229036808014,-1.7682926654815674,-0.06494140625,-0.1162109375,0.14082371085594014,0.017661090038569218,0.08469954320144582,0.012663256171205292,0.23937053799473013,0.24190615227441314
1624634130.308377,0.040540435640326895,1.1083747789322612e-06,5.84,4.94,0.5404720902442932,0.03275229036808014,-1.7682926654815674,-0.06494140625,-0.1162109375,0.14082371085594014,0.017661090038569218,0.08469954320144582,0.012663256171205292,0.23937053799473013,0.24190615227441314
1624634130.368377,0.04658068351276276,9.160520946741423e-06,5.84,4.94,0.5404720902442932,0.03275229036808014,-1.7682926654815674,-0.06494140625,-0.1162109375,0.158712366519218,0.024977350994357418,0.08469954320144582,0.012663256171205292,0.2410550720275812,0.24190615227441314
1624634130.368377,0.04658068351276276,9.160520946741423e-06,5.84,4.94,0.5404720902442932,0.03275229036808014,-1.7682926654815674,-0.06494140625,-0.1162109375,0.158712366519218,0.024977350994357418,0.08469954320144582,0.012663256171205292,0.2410550720275812,0.24190615227441314
1624634130.368377,0.04658068351276276,9.160520946741423e-06,5.85,4.93,0.5404720902442932,0.03275229036808014,-1.7682926654815674,-0.06494140625,-0.1162109375,0.158712366519218,0.024977350994357418,0.08469954320144582,0.012663256171205292,0.2410550720275812,0.24190615227441314
1624634130.368377,0.04658068351276276,9.160520946741423e-06,5.85,4.93,0.5404720902442932,0.03275229036808014,-1.7682926654815674,-0.06494140625,-0.1162109375,0.158712366519218,0.024977350994357418,0.09865273182099339,0.0179864620606102,0.2410550720275812,0.2428956802389289
1624634130.368377,0.04658068351276276,9.160520946741423e-06,5.85,4.93,0.5195059776306152,0.01851816289126873,-1.7682926654815674,-0.06494140625,-0.1162109375,0.158712366519218,0.024977350994357418,0.09865273182099339,0.0179864620606102,0.2410550720275812,0.2428956802389289
1624634130.4283772,0.05285723823327972,1.7680296008417088e-05,5.85,4.93,0.5195059776306152,0.01851816289126873,-1.7682926654815674,-0.06494140625,-0.1162109375,0.1746408018650021,0.023457142793341823,0.09865273182099339,0.0179864620606102,0.24203986057378823,0.2428956802389289
1624634130.4283772,0.05285723823327972,1.7680296008417088e-05,5.85,4.93,0.5195059776306152,0.01851816289126873,0.24390244483947754,-0.03515625,0.48583984375,0.1746408018650021,0.023457142793341823,0.09865273182099339,0.0179864620606102,0.24203986057378823,0.2428956802389289
1624634130.4283772,0.05285723823327972,1.7680296008417088e-05,5.85,4.93,0.5195059776306152,0.01851816289126873,0.24390244483947754,-0.03515625,0.48583984375,0.1746408018650021,0.023457142793341823,0.09865273182099339,0.0179864620606102,0.24203986057378823,0.2428956802389289
1624634130.4283772,0.05285723823327972,1.7680296008417088e-05,5.85,4.93,0.5195059776306152,0.01851816289126873,0.24390244483947754,-0.03515625,0.48583984375,0.1746408018650021,0.023457142793341823,0.11343505732207976,0.019906854254406407,0.24203986057378823,0.24393730983039957
1624634130.4283772,0.05285723823327972,1.7680296008417088e-05,5.85,4.93,0.5195059776306152,0.01851816289126873,0.24390244483947754,-0.03515625,0.48583984375,0.1746408018650021,0.023457142793341823,0.11343505732207976,0.019906854254406407,0.24203986057378823,0.24393730983039957
1624634130.446377,0.05721728336520781,2.4118792466004265e-05,5.85,4.93,0.5037018060684204,-0.015195507556200027,0.24390244483947754,-0.03515625,0.48583984375,0.1714972878620281,0.028550100037735955,0.11343505732207976,0.019906854254406407,0.24269982437033316,0.24393730983039957
1624634130.446377,0.05721728336520781,2.4118792466004265e-05,5.85,4.93,0.5037018060684204,-0.015195507556200027,0.24390244483947754,-0.03515625,0.48583984375,0.1714972878620281,0.028550100037735955,0.11343505732207976,0.019906854254406407,0.24269982437033316,0.24393730983039957
1624634130.446377,0.05721728336520781,2.4118792466004265e-05,5.85,4.92,0.5037018060684204,-0.015195507556200027,0.24390244483947754,-0.03515625,0.48583984375,0.1714972878620281,0.028550100037735955,0.11343505732207976,0.019906854254406407,0.24269982437033316,0.24393730983039957
1624634130.446377,0.05721728336520781,2.4118792466004265e-05,5.85,4.92,0.5037018060684204,-0.015195507556200027,0.24390244483947754,-0.03515625,0.48583984375,0.1714972878620281,0.028550100037735955,0.1227070394225651,0.023221760854037057,0.24269982437033316,0.24441368001982894
1624634130.446377,0.05721728336520781,2.4118792466004265e-05,5.85,4.92,0.5037018060684204,-0.015195507556200027,0.24390244483947754,-0.03515625,0.48583984375,0.1714972878620281,0.028550100037735955,0.1227070394225651,0.023221760854037057,0.24269982437033316,0.24441368001982894
1624634130.488377,0.06208301680376797,2.9775675339508825e-05,5.85,4.92,0.5037018060684204,-0.015195507556200027,0.24390244483947754,-0.03515625,0.48583984375,0.18813346996222838,0.02730478181107249,0.1227070394225651,0.023221760854037057,0.24281708951563769,0.24441368001982894
1624634130.488377,0.06208301680376797,2.9775675339508825e-05,5.85,4.92,0.4975965917110443,0.03166995197534561,0.24390244483947754,-0.03515625,0.48583984375,0.18813346996222838,0.02730478181107249,0.1227070394225651,0.023221760854037057,0.24281708951563769,0.24441368001982894
1624634130.488377,0.06208301680376797,2.9775675339508825e-05,5.85,4.92,0.4975965917110443,0.03166995197534561,1.9512195587158203,0.0703125,0.02734375,0.18813346996222838,0.02730478181107249,0.1227070394225651,0.023221760854037057,0.24281708951563769,0.24441368001982894
1624634130.488377,0.06208301680376797,2.9775675339508825e-05,5.85,4.92,0.4975965917110443,0.03166995197534561,1.9512195587158203,0.0703125,0.02734375,0.18813346996222838,0.02730478181107249,0.13437791521888076,0.024525266364185092,0.24281708951563769,0.24523026719270816
1624634130.488377,0.06208301680376797,2.9775675339508825e-05,5.85,4.92,0.4975965917110443,0.03166995197534561,1.9512195587158203,0.0703125,0.02734375,0.18813346996222838,0.02730478181107249,0.13437791521888076,0.024525266364185092,0.24281708951563769,0.24523026719270816
1624634130.5503771,0.06696961171649454,3.4947663946763436e-05,5.85,4.92,0.4975965917110443,0.03166995197534561,1.9512195587158203,0.0703125,0.02734375,0.1986881913901086,0.016613364541785983,0.13437791521888076,0.024525266364185092,0.24372011958869316,0.24523026719270816
1624634130.5503771,0.06696961171649454,3.4947663946763436e-05,5.85,4.92,0.4897764027118683,-9.466156188864261e-05,1.9512195587158203,0.0703125,0.02734375,0.1986881913901086,0.016613364541785983,0.13437791521888076,0.024525266364185092,0.24372011958869316,0.24523026719270816
1624634130.5503771,0.06696961171649454,3.4947663946763436e-05,5.86,4.88,0.4897764027118683,-9.466156188864261e-05,1.9512195587158203,0.0703125,0.02734375,0.1986881913901086,0.016613364541785983,0.14752935586247792,0.02099627763505476,0.24372011958869316,0.24623521121540726
1624634130.5503771,0.06696961171649454,3.4947663946763436e-05,5.86,4.88,0.4897764027118683,-9.466156188864261e-05,1.9512195587158203,0.0703125,0.02734375,0.1986881913901086,0.016613364541785983,0.14752935586247792,0.02099627763505476,0.24372011958869316,0.24623521121540726
1624634130.5503771,0.06696961171649454,3.4947663946763436e-05,5.86,4.88,0.4897764027118683,-9.466156188864261e-05,1.9512195587158203,0.0703125,0.02734375,0.1986881913901086,0.016613364541785983,0.14752935586247792,0.02099627763505476,0.24372011958869316,0.24623521121540726
1624634130.608377,0.07166960998985797,3.959241979767105e-05,5.86,4.88,0.4897764027118683,-9.466156188864261e-05,1.9512195587158203,0.0703125,0.02734375,0.2081021228470657,0.015641752304615376,0.14752935586247792,0.02099627763505476,0.244460940504482,0.24623521121540726
1624634130.608377,0.07166960998985797,3.959241979767105e-05,5.86,4.88,0.4897764027118683,-9.466156188864261e-05,1.585365891456604,0.04150390625,0.08544921875,0.2081021228470657,0.015641752304615376,0.14752935586247792,0.02099627763505476,0.244460940504482,0.24623521121540726
1624634130.608377,0.07166960998985797,3.959241979767105e-05,5.86,4.88,0.5019515752792358,0.002271959325298667,1.585365891456604,0.04150390625,0.08544921875,0.2081021228470657,0.015641752304615376,0.1603642723388671,0.018935959272970527,0.244460940504482,0.24697255704769386
1624634130.608377,0.07166960998985797,3.959241979767105e-05,5.86,4.88,0.5019515752792358,0.002271959325298667,1.585365891456604,0.04150390625,0.08544921875,0.2081021228470657,0.015641752304615376,0.1603642723388671,0.018935959272970527,0.244460940504482,0.24697255704769386
1624634130.608377,0.07166960998985797,3.959241979767105e-05,5.86,4.88,0.5019515752792358,0.002271959325298667,1.585365891456604,0.04150390625,0.08544921875,0.2081021228470657,0.015641752304615376,0.1603642723388671,0.018935959272970527,0.244460940504482,0.24697255704769386
1624634130.6683772,0.07601793265317515,4.263634607236127e-05,5.86,4.88,0.5019515752792358,0.002271959325298667,1.585365891456604,0.04150390625,0.08544921875,0.21599035933634272,0.005720733569220316,0.1603642723388671,0.018935959272970527,0.24410360193975647,0.24697255704769386
1624634130.6683772,0.07601793265317515,4.263634607236127e-05,5.86,4.88,0.5019515752792358,0.002271959325298667,1.585365891456604,0.04150390625,0.08544921875,0.21599035933634272,0.005720733569220316,0.17295487509929824,0.01307463542749698,0.24410360193975647,0.24721662546898798
1624634130.6683772,0.07601793265317515,4.263634607236127e-05,5.86,4.81,0.5019515752792358,0.002271959325298667,1.585365891456604,0.04150390625,0.08544921875,0.21599035933634272,0.005720733569220316,0.17295487509929824,0.01307463542749698,0.24410360193975647,0.24721662546898798
1624634130.6683772,0.07601793265317515,4.263634607236127e-05,5.86,4.81,0.5019515752792358,0.002271959325298667,1.585365891456604,0.04150390625,0.08544921875,0.21599035933634272,0.005720733569220316,0.17295487509929824,0.01307463542749698,0.24410360193975647,0.24721662546898798
1624634130.6683772,0.07601793265317515,4.263634607236127e-05,5.86,4.81,0.4998054802417755,0.01846860535442829,1.585365891456604,0.04150390625,0.08544921875,0.21599035933634272,0.005720733569220316,0.17295487509929824,0.01307463542749698,0.24410360193975647,0.24721662546898798
1624634130.728377,0.07990146128221155,4.377878705761173e-05,5.86,4.81,0.4998054802417755,0.01846860535442829,1.585365891456604,0.04150390625,0.08544921875,0.2226774759739249,0.005355061544379778,0.17295487509929824,0.01307463542749698,0.24400340598201625,0.24721662546898798
1624634130.728377,0.07990146128221155,4.377878705761173e-05,5.86,4.81,0.4998054802417755,0.01846860535442829,1.585365891456604,0.04150390625,0.08544921875,0.2226774759739249,0.005355061544379778,0.17295487509929824,0.01307463542749698,0.24400340598201625,0.24721662546898798
1624634130.728377,0.07990146128221155,4.377878705761173e-05,5.86,4.81,0.4998054802417755,0.01846860535442829,0.4878048896789551,-0.0009765625,-0.3203125,0.2226774759739249,0.005355061544379778,0.17295487509929824,0.01307463542749698,0.24400340598201625,0.24721662546898798
1624634130.728377,0.07990146128221155,4.377878705761173e-05,5.86,4.81,0.4998054802417755,0.01846860535442829,0.4878048896789551,-0.0009765625,-0.3203125,0.2226774759739249,0.005355061544379778,0.17295487509929824,0.01307463542749698,0.24400340598201625,0.24721662546898798
1624634130.728377,0.07990146128221155,4.377878705761173e-05,5.86,4.81,0.5229881405830383,0.002215482061728835,0.4878048896789551,-0.0009765625,-0.3203125,0.2159971583960403,0.0029422609114252885,0.18493132508910326,0.010125496008818848,0.24403825645372007,0.24722489508508913
1624634130.758377,0.08214320726173702,4.453174532160147e-05,5.86,4.81,0.5229881405830383,0.002215482061728835,0.4878048896789551,-0.0009765625,-0.3203125,0.2159971583960403,0.0029422609114252885,0.18493132508910326,0.010125496008818848,0.24403825645372007,0.24722489508508913
1624634130.758377,0.08214320726173702,4.453174532160147e-05,5.86,4.81,0.5229881405830383,0.002215482061728835,0.4878048896789551,-0.0009765625,-0.3203125,0.2159971583960403,0.0029422609114252885,0.18493132508910326,0.010125496008818848,0.24403825645372007,0.24722489508508913
1624634130.758377,0.08214320726173702,4.453174532160147e-05,5.87,4.79,0.5229881405830383,0.002215482061728835,0.4878048896789551,-0.0009765625,-0.3203125,0.2159971583960403,0.0029422609114252885,0.18493132508910326,0.010125496008818848,0.24403825645372007,0.24722489508508913
1624634130.758377,0.08214320726173702,4.453174532160147e-05,5.87,4.79,0.5229881405830383,0.002215482061728835,0.4878048896789551,-0.0009765625,-0.3203125,0.2159971583960403,0.0029422609114252885,0.18493132508910326,0.010125496008818848,0.24403825645372007,0.24722489508508913
1624634130.758377,0.08214320726173702,4.453174532160147e-05,5.87,4.79,0.5229881405830383,0.002215482061728835,0.4878048896789551,-0.0009765625,-0.3203125,0.22902109387833647,0.002825791538633535,0.19160626536127887,0.007142977262797218,0.2435020295089424,0.24701552810620347
1624634130.788377,0.08482714274744525,4.3348794387691355e-05,5.87,4.79,0.5229881405830383,0.002215482061728835,0.4878048896789551,-0.0009765625,-0.3203125,0.22902109387833647,0.002825791538633535,0.19918475410118502,0.005621991052742441,0.2435020295089424,0.24657346554003579
1624634130.788377,0.08482714274744525,4.3348794387691355e-05,5.87,4.79,0.49792954325675964,0.0010181532707065344,0.4878048896789551,-0.0009765625,-0.3203125,0.22902109387833647,0.002825791538633535,0.19918475410118502,0.005621991052742441,0.2435020295089424,0.24657346554003579
1624634130.788377,0.08482714274744525,4.3348794387691355e-05,5.87,4.79,0.49792954325675964,0.0010181532707065344,-0.3048780560493469,-0.1279296875,-0.1298828125,0.22902109387833647,0.002825791538633535,0.19918475410118502,0.005621991052742441,0.2435020295089424,0.24657346554003579
1624634130.788377,0.08482714274744525,4.3348794387691355e-05,5.87,4.79,0.49792954325675964,0.0010181532707065344,-0.3048780560493469,-0.1279296875,-0.1298828125,0.22902109387833647,0.002825791538633535,0.19918475410118502,0.005621991052742441,0.2435020295089424,0.24657346554003579
1624634130.788377,0.08482714274744525,4.3348794387691355e-05,5.87,4.79,0.49792954325675964,0.0010181532707065344,-0.3048780560493469,-0.1279296875,-0.1298828125,0.22902109387833647,0.002825791538633535,0.19918475410118502,0.005621991052742441,0.2435020295089424,0.24657346554003579
1624634130.848377,0.08724222919894907,4.0325965035917664e-05,5.87,4.76,0.49329352378845215,0.032622694969177246,-0.3048780560493469,-0.1279296875,-0.1298828125,0.2343674247697239,0.012452044493462648,0.19918475410118502,0.005621991052742441,0.24361753586758927,0.24657346554003579
1624634130.848377,0.08724222919894907,4.0325965035917664e-05,5.87,4.76,0.49329352378845215,0.032622694969177246,-0.3048780560493469,-0.1279296875,-0.1298828125,0.2343674247697239,0.012452044493462648,0.19918475410118502,0.005621991052742441,0.24361753586758927,0.24657346554003579
1624634130.848377,0.08724222919894907,4.0325965035917664e-05,5.87,4.76,0.49329352378845215,0.032622694969177246,-0.3048780560493469,-0.1279296875,-0.1298828125,0.2343674247697239,0.012452044493462648,0.19918475410118502,0.005621991052742441,0.24361753586758927,0.24657346554003579
1624634130.848377,0.08724222919894907,4.0325965035917664e-05,5.87,4.76,0.49329352378845215,0.032622694969177246,-0.3048780560493469,-0.1279296875,-0.1298828125,0.2343674247697239,0.012452044493462648,0.19918475410118502,0.005621991052742441,0.24361753586758927,0.24657346554003579
1624634130.848377,0.08724222919894907,4.0325965035917664e-05,5.87,4.76,0.49329352378845215,0.032622694969177246,-0.3048780560493469,-0.1279296875,-0.1298828125,0.23883761121017397,0.011687864651740393,0.20887199150621072,0.008555710356524991,0.24394414931611308,0.24648900055885392
1624634130.9083772,0.08928959931517441,3.6176707069954873e-05,5.87,4.76,0.49329352378845215,0.032622694969177246,-0.3048780560493469,-0.1279296875,-0.1298828125,0.23883761121017397,0.011687864651740393,0.20887199150621072,0.008555710356524991,0.24394414931611308,0.24648900055885392
1624634130.9083772,0.08928959931517441,3.6176707069954873e-05,5.87,4.76,0.49329352378845215,0.032622694969177246,-1.1585365533828735,-0.04736328125,0.14111328125,0.23883761121017397,0.011687864651740393,0.20887199150621072,0.008555710356524991,0.24394414931611308,0.24648900055885392
1624634130.9083772,0.08928959931517441,3.6176707069954873e-05,5.87,4.76,0.4116733968257904,-0.0010244024451822042,-1.1585365533828735,-0.04736328125,0.14111328125,0.23883761121017397,0.011687864651740393,0.20887199150621072,0.008555710356524991,0.24394414931611308,0.24648900055885392
1624634130.9083772,0.08928959931517441,3.6176707069954873e-05,5.87,4.76,0.4116733968257904,-0.0010244024451822042,-1.1585365533828735,-0.04736328125,0.14111328125,0.23883761121017397,0.011687864651740393,0.20887199150621072,0.008555710356524991,0.24394414931611308,0.24648900055885392
1624634130.9083772,0.08928959931517441,3.6176707069954873e-05,5.87,4.76,0.4116733968257904,-0.0010244024451822042,-1.1585365533828735,-0.04736328125,0.14111328125,0.2407777789918559,0.011268320284909084,0.21800559671377082,0.009635552170389985,0.24371636484940734,0.2464807912396148
1624634130.968377,0.09076352937909662,3.114318080710267e-05,5.87,4.76,0.4116733968257904,-0.0010244024451822042,-1.1585365533828735,-0.04736328125,0.14111328125,0.2407777789918559,0.011268320284909084,0.21800559671377082,0.009635552170389985,0.24371636484940734,0.2464807912396148
1624634130.968377,0.09076352937909662,3.114318080710267e-05,5.83,4.72,0.4116733968257904,-0.0010244024451822042,-1.1585365533828735,-0.04736328125,0.14111328125,0.2407777789918559,0.011268320284909084,0.21800559671377082,0.009635552170389985,0.24371636484940734,0.2464807912396148
1624634130.968377,0.09076352937909662,3.114318080710267e-05,5.83,4.72,0.4116733968257904,-0.0010244024451822042,-1.1585365533828735,-0.04736328125,0.14111328125,0.2407777789918559,0.011268320284909084,0.21800559671377082,0.009635552170389985,0.24371636484940734,0.2464807912396148
1624634130.968377,0.09076352937909662,3.114318080710267e-05,5.83,4.72,0.3214256167411804,-0.0009965448407456279,-1.1585365533828735,-0.04736328125,0.14111328125,0.2407777789918559,0.011268320284909084,0.2261730779167375,0.010239847251095566,0.24371636484940734,0.2464175455651682
1624634130.968377,0.09076352937909662,3.114318080710267e-05,5.83,4.72,0.3214256167411804,-0.0009965448407456279,-1.1585365533828735,-0.04736328125,0.14111328125,0.23806320609375825,0.010572700445851986,0.2261730779167375,0.010239847251095566,0.24398386464595434,0.2464175455651682
1624634131.028377,0.09131732211552865,2.6174888215052923e-05,5.83,4.72,0.3214256167411804,-0.0009965448407456279,-1.1585365533828735,-0.04736328125,0.14111328125,0.23806320609375825,0.010572700445851986,0.2261730779167375,0.010239847251095566,0.24398386464595434,0.2464175455651682
1624634131.028377,0.09131732211552865,2.6174888215052923e-05,5.83,4.72,0.3214256167411804,-0.0009965448407456279,1.1585365533828735,-0.03759765625,0.29833984375,0.23806320609375825,0.010572700445851986,0.2261730779167375,0.010239847251095566,0.24398386464595434,0.2464175455651682
1624634131.028377,0.09131732211552865,2.6174888215052923e-05,5.83,4.72,0.3214256167411804,-0.0009965448407456279,1.1585365533828735,-0.03759765625,0.29833984375,0.23806320609375825,0.010572700445851986,0.2261730779167375,0.010239847251095566,0.24398386464595434,0.2464175455651682
1624634131.028377,0.09131732211552865,2.6174888215052923e-05,5.83,4.72,0.3214256167411804,-0.0009965448407456279,1.1585365533828735,-0.03759765625,0.29833984375,0.23806320609375825,0.010572700445851986,0.2261730779167375,0.010239847251095566,0.24398386464595434,0.2464175455651682
1624634131.028377,0.09131732211552865,2.6174888215052923e-05,5.83,4.72,0.22386473417282104,-0.031689293682575226,1.1585365533828735,-0.03759765625,0.29833984375,0.23282579981003354,-0.0009114496896759364,0.23267628657124145,0.01026365211369289,0.24367286161569232,0.24638636708862166
1624634131.0503771,0.09117406031075999,2.2155475518032015e-05,5.83,4.72,0.22386473417282104,-0.031689293682575226,1.1585365533828735,-0.03759765625,0.29833984375,0.23282579981003354,-0.0009114496896759364,0.23267628657124145,0.01026365211369289,0.24367286161569232,0.24638636708862166
1624634131.0503771,0.09117406031075999,2.2155475518032015e-05,5.87,4.67,0.22386473417282104,-0.031689293682575226,1.1585365533828735,-0.03759765625,0.29833984375,0.23282579981003354,-0.0009114496896759364,0.23267628657124145,0.01026365211369289,0.24367286161569232,0.24638636708862166
1624634131.0503771,0.09117406031075999,2.2155475518032015e-05,5.87,4.67,0.22386473417282104,-0.031689293682575226,1.1585365533828735,-0.03759765625,0.29833984375,0.23282579981003354,-0.0009114496896759364,0.23267628657124145,0.01026365211369289,0.24367286161569232,0.24638636708862166
1624634131.0503771,0.09117406031075999,2.2155475518032015e-05,5.87,4.67,0.22386473417282104,-0.031689293682575226,1.1585365533828735,-0.03759765625,0.29833984375,0.23282579981003354,-0.0009114496896759364,0.23441194078154512,0.005815624799404074,0.24367286161569232,0.245981910428727
1624634131.0503771,0.09117406031075999,2.2155475518032015e-05,5.87,4.67,0.22386473417282104,-0.031689293682575226,1.1585365533828735,-0.03759765625,0.29833984375,0.23282579981003354,-0.0009114496896759364,0.23441194078154512,0.005815624799404074,0.24367286161569232,0.245981910428727
1624634131.088377,0.0905780918190372,1.849259488901078e-05,5.87,4.67,0.12101883441209793,0.03372596949338913,1.1585365533828735,-0.03759765625,0.29833984375,0.23014984799652333,-0.0008854276225964199,0.23441194078154512,0.005815624799404074,0.24345141511648516,0.245981910428727
1624634131.088377,0.0905780918190372,1.849259488901078e-05,5.87,4.67,0.12101883441209793,0.03372596949338913,1.2804877758026123,-0.0341796875,0.12255859375,0.23014984799652333,-0.0008854276225964199,0.23441194078154512,0.005815624799404074,0.24345141511648516,0.245981910428727
1624634131.088377,0.0905780918190372,1.849259488901078e-05,5.87,4.67,0.12101883441209793,0.03372596949338913,1.2804877758026123,-0.0341796875,0.12255859375,0.23014984799652333,-0.0008854276225964199,0.23441194078154512,0.005815624799404074,0.24345141511648516,0.245981910428727
1624634131.088377,0.0905780918190372,1.849259488901078e-05,5.87,4.67,0.12101883441209793,0.03372596949338913,1.2804877758026123,-0.0341796875,0.12255859375,0.23014984799652333,-0.0008854276225964199,0.23674143972090428,0.0035097373455639964,0.24345141511648516,0.2455475864543152
1624634131.088377,0.0905780918190372,1.849259488901078e-05,5.87,4.67,0.12101883441209793,0.03372596949338913,1.2804877758026123,-0.0341796875,0.12255859375,0.2150579885961619,-0.004040487454007036,0.23674143972090428,0.0035097373455639964,0.2436060212786371,0.2455475864543152
1624634131.154377,0.0883292127272773,1.4687887649823936e-05,5.87,4.67,0.12101883441209793,0.03372596949338913,1.2804877758026123,-0.0341796875,0.12255859375,0.2150579885961619,-0.004040487454007036,0.23674143972090428,0.0035097373455639964,0.2436060212786371,0.2455475864543152
1624634131.154377,0.0883292127272773,1.4687887649823936e-05,5.7,4.86,0.12101883441209793,0.03372596949338913,1.2804877758026123,-0.0341796875,0.12255859375,0.2150579885961619,-0.004040487454007036,0.23674143972090428,0.0035097373455639964,0.2436060212786371,0.2455475864543152
1624634131.154377,0.0883292127272773,1.4687887649823936e-05,5.7,4.86,0.03336929902434349,-0.01743815280497074,1.2804877758026123,-0.0341796875,0.12255859375,0.2150579885961619,-0.004040487454007036,0.23843696450409535,0.00014714664669414866,0.2436060212786371,0.24519063552269094
1624634131.154377,0.0883292127272773,1.4687887649823936e-05,5.7,4.86,0.03336929902434349,-0.01743815280497074,1.2804877758026123,-0.0341796875,0.12255859375,0.2150579885961619,-0.004040487454007036,0.23843696450409535,0.00014714664669414866,0.2436060212786371,0.24519063552269094
1624634131.154377,0.0883292127272773,1.4687887649823936e-05,5.7,4.86,0.03336929902434349,-0.01743815280497074,1.2804877758026123,-0.0341796875,0.12255859375,0.19797671630572905,-0.0038160176321018636,0.23843696450409535,0.00014714664669414866,0.24352904098830844,0.24519063552269094
1624634131.2083771,0.08458961198672103,1.1186780362888086e-05,5.7,4.86,0.03336929902434349,-0.01743815280497074,1.2804877758026123,-0.0341796875,0.12255859375,0.19797671630572905,-0.0038160176321018636,0.23843696450409535,0.00014714664669414866,0.24352904098830844,0.24519063552269094
1624634131.2083771,0.08458961198672103,1.1186780362888086e-05,5.7,4.86,0.03336929902434349,-0.01743815280497074,1.2804877758026123,-0.0341796875,0.12255859375,0.19797671630572905,-0.0038160176321018636,0.23843696450409535,0.00014714664669414866,0.24352904098830844,0.24519063552269094
1624634131.2083771,0.08458961198672103,1.1186780362888086e-05,5.7,4.86,1.0176117939408869e-05,-9.466156188864261e-05,1.2804877758026123,-0.0341796875,0.12255859375,0.19797671630572905,-0.0038160176321018636,0.23843696450409535,0.00014714664669414866,0.24352904098830844,0.24519063552269094
1624634131.2083771,0.08458961198672103,1.1186780362888086e-05,5.7,4.86,1.0176117939408869e-05,-9.466156188864261e-05,1.2195122241973877,-0.02001953125,0.08740234375,0.19797671630572905,-0.0038160176321018636,0.2360836158321154,-0.0013389479753180087,0.24352904098830844,0.24475271237187993
1624634131.2083771,0.08458961198672103,1.1186780362888086e-05,5.7,4.86,1.0176117939408869e-05,-9.466156188864261e-05,1.2195122241973877,-0.02001953125,0.08740234375,0.1768535586248881,-0.002844355521266451,0.2360836158321154,-0.0013389479753180087,0.24390975484292732,0.24475271237187993
1624634131.268377,0.07915268509661325,7.639561206816601e-06,5.7,4.86,1.0176117939408869e-05,-9.466156188864261e-05,1.2195122241973877,-0.02001953125,0.08740234375,0.1768535586248881,-0.002844355521266451,0.2360836158321154,-0.0013389479753180087,0.24390975484292732,0.24475271237187993
1624634131.268377,0.07915268509661325,7.639561206816601e-06,5.76,4.78,1.0176117939408869e-05,-9.466156188864261e-05,1.2195122241973877,-0.02001953125,0.08740234375,0.1768535586248881,-0.002844355521266451,0.2360836158321154,-0.0013389479753180087,0.24390975484292732,0.24475271237187993
1624634131.268377,0.07915268509661325,7.639561206816601e-06,5.76,4.78,1.0176117939408869e-05,-9.466156188864261e-05,1.2195122241973877,-0.02001953125,0.08740234375,0.1768535586248881,-0.002844355521266451,0.23079190624548465,-0.0020152583864146596,0.24390975484292732,0.24446428341330737
1624634131.268377,0.07915268509661325,7.639561206816601e-06,5.76,4.78,1.0176117939408869e-05,-9.466156188864261e-05,1.2195122241973877,-0.02001953125,0.08740234375,0.1768535586248881,-0.002844355521266451,0.23079190624548465,-0.0020152583864146596,0.24390975484292732,0.24446428341330737
1624634131.328377,0.07230102611294591,4.192453908839961e-06,5.76,4.78,1.0176117939408869e-05,-9.466156188864261e-05,1.2195122241973877,-0.02001953125,0.08740234375,0.15574570116758477,-0.002656581245141694,0.23079190624548465,-0.0020152583864146596,0.2440770468430051,0.24446428341330737
1624634131.328377,0.07230102611294591,4.192453908839961e-06,5.76,4.78,1.0176117939408869e-05,-9.466156188864261e-05,1.2195122241973877,-0.02001953125,0.08740234375,0.15574570116758477,-0.002656581245141694,0.23079190624548465,-0.0020152583864146596,0.2440770468430051,0.24446428341330737
1624634131.328377,0.07230102611294591,4.192453908839961e-06,5.76,4.78,1.0176117939408869e-05,-9.466156188864261e-05,1.9512195587158203,-0.03076171875,-0.03076171875,0.15574570116758477,-0.002656581245141694,0.23079190624548465,-0.0020152583864146596,0.2440770468430051,0.24446428341330737
1624634131.328377,0.07230102611294591,4.192453908839961e-06,5.76,4.78,1.0176117939408869e-05,-9.466156188864261e-05,1.9512195587158203,-0.03076171875,-0.03076171875,0.15574570116758477,-0.002656581245141694,0.2224574723556936,-0.0022570052427699186,0.2440770468430051,0.24427022111824995
1624634131.328377,0.07230102611294591,4.192453908839961e-06,5.76,4.78,1.0176117939408869e-05,-9.466156188864261e-05,1.9512195587158203,-0.03076171875,-0.03076171875,0.15574570116758477,-0.002656581245141694,0.2224574723556936,-0.0022570052427699186,0.2440770468430051,0.24427022111824995
1624634131.3423772,0.06699877392533789,1.8935772409256683e-06,5.76,4.78,1.0176117939408869e-05,-9.466156188864261e-05,1.9512195587158203,-0.03076171875,-0.03076171875,0.15356523310922673,0.006550122138538533,0.2224574723556936,-0.0022570052427699186,0.24442334042570138,0.24427022111824995
1624634131.3423772,0.06699877392533789,1.8935772409256683e-06,5.76,4.78,1.0176117939408869e-05,-9.466156188864261e-05,1.9512195587158203,-0.03076171875,-0.03076171875,0.15356523310922673,0.006550122138538533,0.2224574723556936,-0.0022570052427699186,0.24442334042570138,0.24427022111824995
1624634131.3423772,0.06699877392533789,1.8935772409256683e-06,5.74,4.72,1.0176117939408869e-05,-9.466156188864261e-05,1.9512195587158203,-0.03076171875,-0.03076171875,0.15356523310922673,0.006550122138538533,0.2224574723556936,-0.0022570052427699186,0.24442334042570138,0.24427022111824995
1624634131.3423772,0.06699877392533789,1.8935772409256683e-06,5.74,4.72,1.0176117939408869e-05,-9.466156188864261e-05,1.9512195587158203,-0.03076171875,-0.03076171875,0.15356523310922673,0.006550122138538533,0.21335189030671795,0.0012593227994443746,0.24442334042570138,0.2444236131637383
1624634131.3423772,0.06699877392533789,1.8935772409256683e-06,5.74,4.72,1.0176117939408869e-05,-9.466156188864261e-05,1.9512195587158203,-0.03076171875,-0.03076171875,0.15356523310922673,0.006550122138538533,0.21335189030671795,0.0012593227994443746,0.24442334042570138,0.2444236131637383
1624634131.3883772,0.060789153959312475,-2.1684945205307136e-07,5.74,4.72,1.0176117939408869e-05,-9.466156188864261e-05,1.9512195587158203,-0.03076171875,-0.03076171875,0.13624052793782881,0.006239806071601064,0.21335189030671795,0.0012593227994443746,0.2444973245030427,0.2444236131637383
1624634131.3883772,0.060789153959312475,-2.1684945205307136e-07,5.74,4.72,1.0176117939408869e-05,-9.466156188864261e-05,1.5243902206420898,-0.015625,0.0185546875,0.13624052793782881,0.006239806071601064,0.21335189030671795,0.0012593227994443746,0.2444973245030427,0.2444236131637383
1624634131.3883772,0.060789153959312475,-2.1684945205307136e-07,5.74,4.72,1.0176117939408869e-05,-9.466156188864261e-05,1.5243902206420898,-0.015625,0.0185546875,0.13624052793782881,0.006239806071601064,0.21335189030671795,0.0012593227994443746,0.2444973245030427,0.2444236131637383
1624634131.3883772,0.060789153959312475,-2.1684945205307136e-07,5.74,4.72,1.0176117939408869e-05,-9.466156188864261e-05,1.5243902206420898,-0.015625,0.0185546875,0.13624052793782881,0.006239806071601064,0.2046081350058454,0.0029990300995609677,0.2444973245030427,0.24455645842398568
1624634131.3883772,0.060789153959312475,-2.1684945205307136e-07,5.74,4.72,1.0176117939408869e-05,-9.466156188864261e-05,1.5243902206420898,-0.015625,0.0185546875,0.13624052793782881,0.006239806071601064,0.2046081350058454,0.0029990300995609677,0.2444973245030427,0.24455645842398568
1624634131.4483771,0.053556350485050204,-2.0652091002391895e-06,5.74,4.72,1.0176117939408869e-05,-9.466156188864261e-05,1.5243902206420898,-0.015625,0.0185546875,0.11865310398602441,0.003652061073830763,0.2046081350058454,0.0029990300995609677,0.24449056984413253,0.24455645842398568
1624634131.4483771,0.053556350485050204,-2.0652091002391895e-06,5.74,4.72,1.0176117939408869e-05,-9.466156188864261e-05,1.5243902206420898,-0.015625,0.0185546875,0.11865310398602441,0.003652061073830763,0.2046081350058454,0.0029990300995609677,0.24449056984413253,0.24455645842398568
1624634131.4483771,0.053556350485050204,-2.0652091002391895e-06,5.74,4.72,1.0176117939408869e-05,-9.466156188864261e-05,1.5243902206420898,-0.015625,0.0185546875,0.11865310398602441,0.003652061073830763,0.2046081350058454,0.0029990300995609677,0.24449056984413253,0.24455645842398568
1624634131.4483771,0.053556350485050204,-2.0652091002391895e-06,5.59,4.89,1.0176117939408869e-05,-9.466156188864261e-05,1.5243902206420898,-0.015625,0.0185546875,0.11865310398602441,0.003652061073830763,0.19448982849352708,0.0032774029963530014,0.24449056984413253,0.24469797033138008
1624634131.4483771,0.053556350485050204,-2.0652091002391895e-06,5.59,4.89,1.0176117939408869e-05,-9.466156188864261e-05,1.5243902206420898,-0.015625,0.0185546875,0.11865310398602441,0.003652061073830763,0.19448982849352708,0.0032774029963530014,0.24449056984413253,0.24469797033138008
