time,la_x,la_y,uwb_x,uwb_y,vel_linear_x,vel_angular_z,mpu_ang_vel_z,mpu_linear_acc_x,mpu_linear_acc_y,odom_linear_x,odom_angular_z,odom_filtered_linear_x,odom_filtered_angular_z,odom_yaw,odom_filtered_yaw
1623769812.9452791,8.720793845845348e-16,-3.433976388021588e-19,0.0,0.0,,,,,,5.06379977669371e-20,0.0017682573647022205,3.0803523542779206e-16,0.0015917278532040428,0.0014053332131815914,0.0028922899660092406
1623769812.9452791,8.720793845845348e-16,-3.433976388021588e-19,0.0,0.0,,,,,,5.06379977669371e-20,0.0017682573647022205,3.0803523542779206e-16,0.0015917278532040428,0.0014053332131815914,0.0028922899660092406
1623769812.9452791,8.720793845845348e-16,-3.433976388021588e-19,0.0,0.0,,,,,,5.06379977669371e-20,0.0017682573647022205,3.0803523542779206e-16,0.0015917278532040428,0.0014053332131815914,0.0028922899660092406
1623769812.9452791,8.720793845845348e-16,-3.433976388021588e-19,0.0,0.0,5.559297813761965e-11,-5.171439942941447e-10,1.3414634466171265,-0.00146484375,-0.00390625,5.06379977669371e-20,0.0017682573647022205,3.0803523542779206e-16,0.0015917278532040428,0.0014053332131815914,0.0028922899660092406
1623769813.005279,8.409855947161879e-16,1.1487959680416927e-19,0.0,0.0,5.559297813761965e-11,-5.171439942941447e-10,1.3414634466171265,-0.00146484375,-0.00390625,4.918300620463711e-20,0.0016560423003250777,3.0106139490358133e-16,0.0015364808487197813,0.0014009608456965895,0.002893883283426316
1623769813.005279,8.409855947161879e-16,1.1487959680416927e-19,0.0,0.0,5.559297813761965e-11,-5.171439942941447e-10,1.3414634466171265,-0.00146484375,-0.00390625,4.918300620463711e-20,0.0016560423003250777,3.0106139490358133e-16,0.0015364808487197813,0.0014009608456965895,0.002893883283426316
1623769813.005279,8.409855947161879e-16,1.1487959680416927e-19,0.0,0.0,5.559297813761965e-11,-5.171439942941447e-10,1.3414634466171265,-0.00146484375,-0.00390625,4.918300620463711e-20,0.0016560423003250777,3.0106139490358133e-16,0.0015364808487197813,0.0014009608456965895,0.002893883283426316
1623769813.005279,8.409855947161879e-16,1.1487959680416927e-19,0.0,0.0,5.559297813761965e-11,-5.171439942941447e-10,1.3414634466171265,-0.00146484375,-0.00390625,4.918300620463711e-20,0.0016560423003250777,3.0106139490358133e-16,0.0015364808487197813,0.0014009608456965895,0.002893883283426316
1623769813.005279,8.409855947161879e-16,1.1487959680416927e-19,0.0,0.0,5.559297813761965e-11,-5.171439942941447e-10,1.3414634466171265,-0.00146484375,-0.00390625,4.918300620463711e-20,0.0016560423003250777,3.0106139490358133e-16,0.0015364808487197813,0.0014009608456965895,0.002893883283426316
1623769813.005279,8.186800598845492e-16,4.436307502132923e-19,1.99,2.64,5.559297813761965e-11,-5.171439942941447e-10,1.3414634466171265,-0.00146484375,-0.00390625,4.9188338686289914e-20,0.001842661477012712,2.585228054414934e-16,0.0016073937277704636,0.0014067420844971524,0.002819046832042018
1623769813.005279,8.186800598845492e-16,4.436307502132923e-19,1.99,2.64,5.559297813761965e-11,-5.171439942941447e-10,1.3414634466171265,-0.00146484375,-0.00390625,4.9188338686289914e-20,0.001842661477012712,2.585228054414934e-16,0.0016073937277704636,0.0014067420844971524,0.002819046832042018
1623769813.005279,8.186800598845492e-16,4.436307502132923e-19,1.99,2.64,5.559297813761965e-11,-5.171439942941447e-10,1.3414634466171265,-0.00146484375,-0.00390625,4.9188338686289914e-20,0.001842661477012712,2.585228054414934e-16,0.0016073937277704636,0.0014067420844971524,0.002819046832042018
1623769813.005279,8.186800598845492e-16,4.436307502132923e-19,1.99,2.64,5.559297813761965e-11,-5.171439942941447e-10,1.3414634466171265,-0.00146484375,-0.00390625,4.9188338686289914e-20,0.001842661477012712,2.585228054414934e-16,0.0016073937277704636,0.0014067420844971524,0.002819046832042018
1623769813.005279,8.186800598845492e-16,4.436307502132923e-19,1.99,2.64,5.559297813761965e-11,-5.171439942941447e-10,1.3414634466171265,-0.01220703125,0.00341796875,4.9188338686289914e-20,0.001842661477012712,2.585228054414934e-16,0.0016073937277704636,0.0014067420844971524,0.002819046832042018
1623769813.065279,7.946044115203025e-16,7.966489231750357e-19,1.99,2.64,5.559297813761965e-11,-5.171439942941447e-10,1.3414634466171265,-0.01220703125,0.00341796875,4.781114801389208e-20,0.0017273101030125424,2.6184358476533738e-16,0.0015996271561000406,0.001403468061343824,0.0028332626285207593
1623769813.065279,7.946044115203025e-16,7.966489231750357e-19,1.99,2.64,5.559297813761965e-11,-5.171439942941447e-10,1.3414634466171265,-0.01220703125,0.00341796875,4.781114801389208e-20,0.0017273101030125424,2.6184358476533738e-16,0.0015996271561000406,0.001403468061343824,0.0028332626285207593
1623769813.065279,7.946044115203025e-16,7.966489231750357e-19,1.99,2.64,5.559297813761965e-11,-5.171439942941447e-10,1.3414634466171265,-0.01220703125,0.00341796875,4.781114801389208e-20,0.0017273101030125424,2.6184358476533738e-16,0.0015996271561000406,0.001403468061343824,0.0028332626285207593
1623769813.065279,7.946044115203025e-16,7.966489231750357e-19,1.99,2.64,5.559297813761965e-11,-5.171439942941447e-10,1.3414634466171265,-0.01220703125,0.00341796875,4.781114801389208e-20,0.0017273101030125424,2.6184358476533738e-16,0.0015996271561000406,0.001403468061343824,0.0028332626285207593
1623769813.065279,7.946044115203025e-16,7.966489231750357e-19,1.99,2.64,5.559297813761965e-11,-5.171439942941447e-10,1.3414634466171265,-0.01220703125,0.00341796875,4.781114801389208e-20,0.0017273101030125424,2.6184358476533738e-16,0.0015996271561000406,0.001403468061343824,0.0028332626285207593
1623769813.125279,7.694136551691493e-16,1.1225153439203125e-18,1.99,2.64,5.559297813761965e-11,-5.171439942941447e-10,1.3414634466171265,-0.01220703125,0.00341796875,4.5814956634185985e-20,0.0018078411434347384,2.6184358476533738e-16,0.0015996271561000406,0.0014065957210796518,0.0028332626285207593
1623769813.125279,7.694136551691493e-16,1.1225153439203125e-18,1.99,2.63,5.559297813761965e-11,-5.171439942941447e-10,1.3414634466171265,-0.01220703125,0.00341796875,4.5814956634185985e-20,0.0018078411434347384,2.6162516528849137e-16,0.0016316675183966065,0.0014065957210796518,0.002848405870892145
1623769813.125279,7.694136551691493e-16,1.1225153439203125e-18,1.99,2.63,5.559297813761965e-11,-5.171439942941447e-10,1.3414634466171265,-0.01220703125,0.00341796875,4.5814956634185985e-20,0.0018078411434347384,2.6162516528849137e-16,0.0016316675183966065,0.0014065957210796518,0.002848405870892145
1623769813.125279,7.694136551691493e-16,1.1225153439203125e-18,1.99,2.63,5.559297813761965e-11,-5.171439942941447e-10,1.3414634466171265,-0.01220703125,0.00341796875,4.5814956634185985e-20,0.0018078411434347384,2.6162516528849137e-16,0.0016316675183966065,0.0014065957210796518,0.002848405870892145
1623769813.125279,7.694136551691493e-16,1.1225153439203125e-18,1.99,2.63,5.559297813761965e-11,-5.171439942941447e-10,1.2195122241973877,-0.00927734375,0.0,4.387808760774909e-20,0.0016937226150431622,2.6162516528849137e-16,0.0016316675183966065,0.00140251372929097,0.002848405870892145
1623769813.185279,7.436653698289793e-16,1.4186747054355671e-18,1.99,2.63,5.559297813761965e-11,-5.171439942941447e-10,1.2195122241973877,-0.00927734375,0.0,4.387808760774909e-20,0.0016937226150431622,2.5880693872860236e-16,0.001588642954991447,0.00140251372929097,0.0028586016653735368
1623769813.185279,7.436653698289793e-16,1.4186747054355671e-18,1.99,2.63,5.559297813761965e-11,-5.171439942941447e-10,1.2195122241973877,-0.00927734375,0.0,4.387808760774909e-20,0.0016937226150431622,2.5880693872860236e-16,0.001588642954991447,0.00140251372929097,0.0028586016653735368
1623769813.185279,7.436653698289793e-16,1.4186747054355671e-18,1.99,2.63,5.559297813761965e-11,-5.171439942941447e-10,1.2195122241973877,-0.00927734375,0.0,4.387808760774909e-20,0.0016937226150431622,2.5880693872860236e-16,0.001588642954991447,0.00140251372929097,0.0028586016653735368
1623769813.185279,7.436653698289793e-16,1.4186747054355671e-18,1.99,2.63,5.559297813761965e-11,-5.171439942941447e-10,1.2195122241973877,-0.00927734375,0.0,4.387808760774909e-20,0.0016937226150431622,2.5880693872860236e-16,0.001588642954991447,0.00140251372929097,0.0028586016653735368
1623769813.185279,7.436653698289793e-16,1.4186747054355671e-18,1.99,2.63,5.559297813761965e-11,-5.171439942941447e-10,1.2195122241973877,-0.00927734375,0.0,4.210708331063395e-20,0.0018214429006344025,2.5880693872860236e-16,0.001588642954991447,0.0014075838417507071,0.0028586016653735368
1623769813.245279,7.177823451385125e-16,1.6854859666992959e-18,1.99,2.62,5.559297813761965e-11,-5.171439942941447e-10,1.2195122241973877,-0.00927734375,0.0,4.210708331063395e-20,0.0018214429006344025,2.541278798424277e-16,0.0016158385342317032,0.0014075838417507071,0.002869628406114356
1623769813.245279,7.177823451385125e-16,1.6854859666992959e-18,1.99,2.62,5.559297813761965e-11,-5.171439942941447e-10,1.2195122241973877,-0.00927734375,0.0,4.210708331063395e-20,0.0018214429006344025,2.541278798424277e-16,0.0016158385342317032,0.0014075838417507071,0.002869628406114356
1623769813.245279,7.177823451385125e-16,1.6854859666992959e-18,1.99,2.62,5.559297813761965e-11,-5.171439942941447e-10,1.2195122241973877,-0.00927734375,0.0,4.210708331063395e-20,0.0018214429006344025,2.541278798424277e-16,0.0016158385342317032,0.0014075838417507071,0.002869628406114356
1623769813.245279,7.177823451385125e-16,1.6854859666992959e-18,1.99,2.62,5.559297813761965e-11,-5.171439942941447e-10,1.2195122241973877,-0.00927734375,0.0,4.210708331063395e-20,0.0018214429006344025,2.541278798424277e-16,0.0016158385342317032,0.0014075838417507071,0.002869628406114356
1623769813.245279,7.177823451385125e-16,1.6854859666992959e-18,1.99,2.62,5.559297813761965e-11,-5.171439942941447e-10,1.2195122241973877,-0.00927734375,0.0,4.210708331063395e-20,0.0018214429006344025,2.541278798424277e-16,0.0016158385342317032,0.0014075838417507071,0.002869628406114356
1623769813.305279,6.920903611097882e-16,1.9245610955625564e-18,1.99,2.62,5.559297813761965e-11,-5.171439942941447e-10,1.2804877758026123,-0.00634765625,0.0029296875,4.039082805040401e-20,0.0017057774360696003,2.541278798424277e-16,0.0016158385342317032,0.0014032527574675295,0.002869628406114356
1623769813.305279,6.920903611097882e-16,1.9245610955625564e-18,1.99,2.62,5.559297813761965e-11,-5.171439942941447e-10,1.2804877758026123,-0.00634765625,0.0029296875,4.039082805040401e-20,0.0017057774360696003,2.4818462614008163e-16,0.0015697192616809523,0.0014032527574675295,0.002874547434082726
1623769813.305279,6.920903611097882e-16,1.9245610955625564e-18,1.99,2.62,5.559297813761965e-11,-5.171439942941447e-10,1.2804877758026123,-0.00634765625,0.0029296875,4.039082805040401e-20,0.0017057774360696003,2.4818462614008163e-16,0.0015697192616809523,0.0014032527574675295,0.002874547434082726
1623769813.305279,6.920903611097882e-16,1.9245610955625564e-18,1.99,2.62,5.559297813761965e-11,-5.171439942941447e-10,1.2804877758026123,-0.00634765625,0.0029296875,4.039082805040401e-20,0.0017057774360696003,2.4818462614008163e-16,0.0015697192616809523,0.0014032527574675295,0.002874547434082726
1623769813.305279,6.920903611097882e-16,1.9245610955625564e-18,1.99,2.62,5.559297813761965e-11,-5.171439942941447e-10,1.2804877758026123,-0.00634765625,0.0029296875,4.0314611058171965e-20,0.0019057506688638852,2.4818462614008163e-16,0.0015697192616809523,0.001413299740570347,0.002874547434082726
1623769813.307279,6.734949111205871e-16,2.0956534869254085e-18,1.99,2.61,5.559297813761965e-11,-5.171439942941447e-10,1.2804877758026123,-0.00634765625,0.0029296875,4.0314611058171965e-20,0.0019057506688638852,2.141013002932102e-16,0.0016468078708583374,0.001413299740570347,0.0028074276776941095
1623769813.307279,6.734949111205871e-16,2.0956534869254085e-18,1.99,2.61,5.559297813761965e-11,-5.171439942941447e-10,1.2804877758026123,-0.00634765625,0.0029296875,4.0314611058171965e-20,0.0019057506688638852,2.141013002932102e-16,0.0016468078708583374,0.001413299740570347,0.0028074276776941095
1623769813.307279,6.734949111205871e-16,2.0956534869254085e-18,1.99,2.61,5.559297813761965e-11,-5.171439942941447e-10,1.2804877758026123,-0.00634765625,0.0029296875,4.0314611058171965e-20,0.0019057506688638852,2.141013002932102e-16,0.0016468078708583374,0.001413299740570347,0.0028074276776941095
1623769813.307279,6.734949111205871e-16,2.0956534869254085e-18,1.99,2.61,5.559297813761965e-11,-5.171439942941447e-10,1.2804877758026123,-0.00634765625,0.0029296875,4.0314611058171965e-20,0.0019057506688638852,2.141013002932102e-16,0.0016468078708583374,0.001413299740570347,0.0028074276776941095
1623769813.307279,6.734949111205871e-16,2.0956534869254085e-18,1.99,2.61,5.559297813761965e-11,-5.171439942941447e-10,1.2804877758026123,-0.00634765625,0.0029296875,4.0314611058171965e-20,0.0019057506688638852,2.141013002932102e-16,0.0016468078708583374,0.001413299740570347,0.0028074276776941095
1623769813.365279,6.536813207806944e-16,2.261299485724752e-18,1.99,2.61,5.559297813761965e-11,-5.171439942941447e-10,1.3414634466171265,-0.00439453125,0.005859375,3.878492570739507e-20,0.0017898084674342922,2.154624002595062e-16,0.001643187217088269,0.001406403509392287,0.002821519113317038
1623769813.365279,6.536813207806944e-16,2.261299485724752e-18,1.99,2.61,5.559297813761965e-11,-5.171439942941447e-10,1.3414634466171265,-0.00439453125,0.005859375,3.878492570739507e-20,0.0017898084674342922,2.154624002595062e-16,0.001643187217088269,0.001406403509392287,0.002821519113317038
1623769813.365279,6.536813207806944e-16,2.261299485724752e-18,1.99,2.61,5.559297813761965e-11,-5.171439942941447e-10,1.3414634466171265,-0.00439453125,0.005859375,3.878492570739507e-20,0.0017898084674342922,2.154624002595062e-16,0.001643187217088269,0.001406403509392287,0.002821519113317038
1623769813.365279,6.536813207806944e-16,2.261299485724752e-18,1.99,2.61,5.559297813761965e-11,-5.171439942941447e-10,1.3414634466171265,-0.00439453125,0.005859375,3.878492570739507e-20,0.0017898084674342922,2.154624002595062e-16,0.001643187217088269,0.001406403509392287,0.002821519113317038
1623769813.365279,6.536813207806944e-16,2.261299485724752e-18,1.99,2.61,5.559297813761965e-11,-5.171439942941447e-10,1.3414634466171265,-0.00439453125,0.005859375,3.878492570739507e-20,0.0017898084674342922,2.154624002595062e-16,0.001643187217088269,0.001406403509392287,0.002821519113317038
1623769813.425279,6.329561082025898e-16,2.4189508883569866e-18,1.98,2.62,5.559297813761965e-11,-5.171439942941447e-10,1.3414634466171265,-0.00439453125,0.005859375,3.730279572126123e-20,0.001846196316012041,2.152683249369903e-16,0.0016728905871391112,0.0014082457094458092,0.002839301569887963
1623769813.425279,6.329561082025898e-16,2.4189508883569866e-18,1.98,2.62,5.559297813761965e-11,-5.171439942941447e-10,1.3414634466171265,-0.00439453125,0.005859375,3.730279572126123e-20,0.001846196316012041,2.152683249369903e-16,0.0016728905871391112,0.0014082457094458092,0.002839301569887963
1623769813.425279,6.329561082025898e-16,2.4189508883569866e-18,1.98,2.62,5.559297813761965e-11,-5.171439942941447e-10,1.3414634466171265,-0.00439453125,0.005859375,3.730279572126123e-20,0.001846196316012041,2.152683249369903e-16,0.0016728905871391112,0.0014082457094458092,0.002839301569887963
1623769813.425279,6.329561082025898e-16,2.4189508883569866e-18,1.98,2.62,5.559297813761965e-11,-5.171439942941447e-10,1.3414634466171265,-0.00390625,0.005859375,3.730279572126123e-20,0.001846196316012041,2.152683249369903e-16,0.0016728905871391112,0.0014082457094458092,0.002839301569887963
1623769813.425279,6.329561082025898e-16,2.4189508883569866e-18,1.98,2.62,5.559297813761965e-11,-5.171439942941447e-10,1.3414634466171265,-0.00390625,0.005859375,3.5870872239164526e-20,0.0017296616482009035,2.152683249369903e-16,0.0016728905871391112,0.0014041770380819017,0.002839301569887963
1623769813.485279,6.117754114128185e-16,2.567416351327916e-18,1.98,2.62,5.559297813761965e-11,-5.171439942941447e-10,1.3414634466171265,-0.00390625,0.005859375,3.5870872239164526e-20,0.0017296616482009035,2.129410157592152e-16,0.0016275188926702052,0.0014041770380819017,0.0028516405813342376
1623769813.485279,6.117754114128185e-16,2.567416351327916e-18,1.98,2.62,5.559297813761965e-11,-5.171439942941447e-10,1.3414634466171265,-0.00390625,0.005859375,3.5870872239164526e-20,0.0017296616482009035,2.129410157592152e-16,0.0016275188926702052,0.0014041770380819017,0.0028516405813342376
1623769813.485279,6.117754114128185e-16,2.567416351327916e-18,1.98,2.62,5.559297813761965e-11,-5.171439942941447e-10,1.3414634466171265,-0.00390625,0.005859375,3.5870872239164526e-20,0.0017296616482009035,2.129410157592152e-16,0.0016275188926702052,0.0014041770380819017,0.0028516405813342376
1623769813.485279,6.117754114128185e-16,2.567416351327916e-18,1.98,2.62,5.559297813761965e-11,-5.171439942941447e-10,1.3414634466171265,-0.00390625,0.005859375,3.5870872239164526e-20,0.0017296616482009035,2.129410157592152e-16,0.0016275188926702052,0.0014041770380819017,0.0028516405813342376
1623769813.485279,6.117754114128185e-16,2.567416351327916e-18,1.98,2.62,5.559297813761965e-11,-5.171439942941447e-10,1.3414634466171265,-0.00390625,0.005859375,3.454871721474743e-20,0.0017347644655048497,2.129410157592152e-16,0.0016275188926702052,0.001404438676635049,0.0028516405813342376
1623769813.545279,5.904878111023007e-16,2.7067370687391153e-18,1.97,2.63,5.559297813761965e-11,-5.171439942941447e-10,1.3414634466171265,-0.00390625,0.005859375,3.454871721474743e-20,0.0017347644655048497,2.0909005217823892e-16,0.0016046720420822484,0.001404438676635049,0.00286086693990834
1623769813.545279,5.904878111023007e-16,2.7067370687391153e-18,1.97,2.63,5.559297813761965e-11,-5.171439942941447e-10,1.3414634466171265,-0.00390625,0.005859375,3.454871721474743e-20,0.0017347644655048497,2.0909005217823892e-16,0.0016046720420822484,0.001404438676635049,0.00286086693990834
1623769813.545279,5.904878111023007e-16,2.7067370687391153e-18,1.97,2.63,5.559297813761965e-11,-5.171439942941447e-10,1.3414634466171265,-0.00390625,0.005859375,3.454871721474743e-20,0.0017347644655048497,2.0909005217823892e-16,0.0016046720420822484,0.001404438676635049,0.00286086693990834
1623769813.545279,5.904878111023007e-16,2.7067370687391153e-18,1.97,2.63,5.559297813761965e-11,-5.171439942941447e-10,1.3414634466171265,-0.00390625,0.005859375,3.454871721474743e-20,0.0017347644655048497,2.0909005217823892e-16,0.0016046720420822484,0.001404438676635049,0.00286086693990834
1623769813.545279,5.904878111023007e-16,2.7067370687391153e-18,1.97,2.63,5.559297813761965e-11,-5.171439942941447e-10,1.3414634466171265,-0.01123046875,0.00537109375,3.454871721474743e-20,0.0017347644655048497,2.0909005217823892e-16,0.0016046720420822484,0.001404438676635049,0.00286086693990834
1623769813.545279,5.751509956837419e-16,2.8071117531490564e-18,1.97,2.63,5.559297813761965e-11,-5.171439942941447e-10,1.3414634466171265,-0.01123046875,0.00537109375,3.454871721474743e-20,0.0017347644655048497,1.798701227836488e-16,0.001600489574370043,0.001404438676635049,0.00278312089863106
1623769813.545279,5.751509956837419e-16,2.8071117531490564e-18,1.97,2.63,5.559297813761965e-11,-5.171439942941447e-10,1.3414634466171265,-0.01123046875,0.00537109375,3.454871721474743e-20,0.0017347644655048497,1.798701227836488e-16,0.001600489574370043,0.001404438676635049,0.00278312089863106
1623769813.545279,5.751509956837419e-16,2.8071117531490564e-18,1.97,2.63,5.559297813761965e-11,-5.171439942941447e-10,1.3414634466171265,-0.01123046875,0.00537109375,3.454871721474743e-20,0.0017347644655048497,1.798701227836488e-16,0.001600489574370043,0.001404438676635049,0.00278312089863106
1623769813.545279,5.751509956837419e-16,2.8071117531490564e-18,1.97,2.63,5.559297813761965e-11,-5.171439942941447e-10,1.3414634466171265,-0.01123046875,0.00537109375,3.454871721474743e-20,0.0017347644655048497,1.798701227836488e-16,0.001600489574370043,0.001404438676635049,0.00278312089863106
1623769813.545279,5.751509956837419e-16,2.8071117531490564e-18,1.97,2.63,5.559297813761965e-11,-5.171439942941447e-10,1.3414634466171265,-0.01123046875,0.00537109375,3.454871721474743e-20,0.0017347644655048497,1.798701227836488e-16,0.001600489574370043,0.001404438676635049,0.00278312089863106
1623769813.605279,5.584884184618832e-16,2.9093922068636667e-18,1.96,2.64,5.559297813761965e-11,-5.171439942941447e-10,1.3414634466171265,-0.01123046875,0.00537109375,3.3297939664730024e-20,0.00181178201734373,1.798701227836488e-16,0.001600489574370043,0.001405911607268936,0.00278312089863106
1623769813.605279,5.584884184618832e-16,2.9093922068636667e-18,1.96,2.64,5.559297813761965e-11,-5.171439942941447e-10,1.3414634466171265,-0.01123046875,0.00537109375,3.3297939664730024e-20,0.00181178201734373,1.8271308257980694e-16,0.0016420446801906428,0.001405911607268936,0.0028026151121344003
1623769813.605279,5.584884184618832e-16,2.9093922068636667e-18,1.96,2.64,5.559297813761965e-11,-5.171439942941447e-10,1.3414634466171265,-0.01123046875,0.00537109375,3.3297939664730024e-20,0.00181178201734373,1.8271308257980694e-16,0.0016420446801906428,0.001405911607268936,0.0028026151121344003
1623769813.605279,5.584884184618832e-16,2.9093922068636667e-18,1.96,2.64,5.559297813761965e-11,-5.171439942941447e-10,1.3414634466171265,0.00048828125,0.0146484375,3.3297939664730024e-20,0.00181178201734373,1.8271308257980694e-16,0.0016420446801906428,0.001405911607268936,0.0028026151121344003
1623769813.703279,5.381228298324805e-16,2.9970315678661358e-18,1.96,2.64,5.559297813761965e-11,-5.171439942941447e-10,1.3414634466171265,0.00048828125,0.0146484375,3.088362584646345e-20,0.0018977511083022726,1.9855719377505726e-16,0.0017367885571360105,0.0014797057748139016,0.002921346930123459
1623769813.703279,5.381228298324805e-16,2.9970315678661358e-18,1.96,2.64,5.559297813761965e-11,-5.171439942941447e-10,1.3414634466171265,0.00048828125,0.0146484375,3.088362584646345e-20,0.0018977511083022726,1.9855719377505726e-16,0.0017367885571360105,0.0014797057748139016,0.002921346930123459
1623769813.703279,5.381228298324805e-16,2.9970315678661358e-18,1.96,2.64,5.559297813761965e-11,-5.171439942941447e-10,1.3414634466171265,0.00048828125,0.0146484375,3.088362584646345e-20,0.0018977511083022726,1.9855719377505726e-16,0.0017367885571360105,0.0014797057748139016,0.002921346930123459
1623769813.703279,5.381228298324805e-16,2.9970315678661358e-18,1.96,2.64,5.559297813761965e-11,-5.171439942941447e-10,1.3414634466171265,0.00048828125,0.0146484375,3.088362584646345e-20,0.0018977511083022726,1.9855719377505726e-16,0.0017367885571360105,0.0014797057748139016,0.002921346930123459
1623769813.703279,5.381228298324805e-16,2.9970315678661358e-18,1.96,2.64,5.559297813761965e-11,-5.171439942941447e-10,1.3414634466171265,0.00048828125,0.0146484375,3.088362584646345e-20,0.0018977511083022726,1.9855719377505726e-16,0.0017367885571360105,0.0014797057748139016,0.002921346930123459
1623769813.725279,5.210074540557991e-16,3.0549085887302263e-18,1.96,2.64,5.559297813761965e-11,-5.171439942941447e-10,1.3414634466171265,0.00048828125,0.0146484375,3.024576663595037e-20,0.0018511937213112116,1.7772924782318188e-16,0.001728354910905079,0.0014077933084632778,0.0028712083966450173
1623769813.725279,5.210074540557991e-16,3.0549085887302263e-18,1.97,2.63,5.559297813761965e-11,-5.171439942941447e-10,1.3414634466171265,0.00048828125,0.0146484375,3.024576663595037e-20,0.0018511937213112116,1.7772924782318188e-16,0.001728354910905079,0.0014077933084632778,0.0028712083966450173
1623769813.725279,5.210074540557991e-16,3.0549085887302263e-18,1.97,2.63,5.559297813761965e-11,-5.171439942941447e-10,1.3414634466171265,0.00048828125,0.0146484375,3.024576663595037e-20,0.0018511937213112116,1.7772924782318188e-16,0.001728354910905079,0.0014077933084632778,0.0028712083966450173
1623769813.725279,5.210074540557991e-16,3.0549085887302263e-18,1.97,2.63,5.559297813761965e-11,-5.171439942941447e-10,1.3414634466171265,0.00048828125,0.0146484375,3.024576663595037e-20,0.0018511937213112116,1.7772924782318188e-16,0.001728354910905079,0.0014077933084632778,0.0028712083966450173
1623769813.725279,5.210074540557991e-16,3.0549085887302263e-18,1.97,2.63,5.559297813761965e-11,-5.171439942941447e-10,1.3414634466171265,0.00048828125,0.0146484375,3.024576663595037e-20,0.0018511937213112116,1.7772924782318188e-16,0.001728354910905079,0.0014077933084632778,0.0028712083966450173
1623769813.785279,5.035397831177442e-16,3.117458797322412e-18,1.97,2.63,5.559297813761965e-11,-5.171439942941447e-10,1.2804877758026123,-0.00439453125,0.0009765625,2.9232839587312285e-20,0.0017342156017284476,1.7565354780286935e-16,0.0016706643453492198,0.0014040978203708739,0.002882227306421272
1623769813.785279,5.035397831177442e-16,3.117458797322412e-18,1.97,2.63,5.559297813761965e-11,-5.171439942941447e-10,1.2804877758026123,-0.00439453125,0.0009765625,2.9232839587312285e-20,0.0017342156017284476,1.7565354780286935e-16,0.0016706643453492198,0.0014040978203708739,0.002882227306421272
1623769813.785279,5.035397831177442e-16,3.117458797322412e-18,1.97,2.63,5.559297813761965e-11,-5.171439942941447e-10,1.2804877758026123,-0.00439453125,0.0009765625,2.9232839587312285e-20,0.0017342156017284476,1.7565354780286935e-16,0.0016706643453492198,0.0014040978203708739,0.002882227306421272
1623769813.785279,5.035397831177442e-16,3.117458797322412e-18,1.97,2.63,5.559297813761965e-11,-5.171439942941447e-10,1.2804877758026123,-0.00439453125,0.0009765625,2.9232839587312285e-20,0.0017342156017284476,1.7565354780286935e-16,0.0016706643453492198,0.0014040978203708739,0.002882227306421272
1623769813.785279,5.035397831177442e-16,3.117458797322412e-18,1.97,2.63,5.559297813761965e-11,-5.171439942941447e-10,1.2804877758026123,-0.00439453125,0.0009765625,2.9232839587312285e-20,0.0017342156017284476,1.7565354780286935e-16,0.0016706643453492198,0.0014040978203708739,0.002882227306421272
1623769813.845279,4.859972498433846e-16,3.138230777939248e-18,1.97,2.63,5.559297813761965e-11,-5.171439942941447e-10,1.2804877758026123,-0.00439453125,0.0009765625,2.754635605531602e-20,0.0017903070029150945,1.7236521072282043e-16,0.0016540176490030011,0.0014066042261150673,0.0028914494256589668
1623769813.845279,4.859972498433846e-16,3.138230777939248e-18,1.98,2.65,5.559297813761965e-11,-5.171439942941447e-10,1.2804877758026123,-0.00439453125,0.0009765625,2.754635605531602e-20,0.0017903070029150945,1.7236521072282043e-16,0.0016540176490030011,0.0014066042261150673,0.0028914494256589668
1623769813.845279,4.859972498433846e-16,3.138230777939248e-18,1.98,2.65,5.559297813761965e-11,-5.171439942941447e-10,1.2804877758026123,-0.00439453125,0.0009765625,2.754635605531602e-20,0.0017903070029150945,1.7236521072282043e-16,0.0016540176490030011,0.0014066042261150673,0.0028914494256589668
1623769813.845279,4.859972498433846e-16,3.138230777939248e-18,1.98,2.65,5.559297813761965e-11,-5.171439942941447e-10,1.2804877758026123,-0.00439453125,0.0009765625,2.754635605531602e-20,0.0017903070029150945,1.7236521072282043e-16,0.0016540176490030011,0.0014066042261150673,0.0028914494256589668
1623769813.845279,4.859972498433846e-16,3.138230777939248e-18,1.98,2.65,5.559297813761965e-11,-5.171439942941447e-10,1.2804877758026123,-0.00439453125,0.0009765625,2.754635605531602e-20,0.0017903070029150945,1.7236521072282043e-16,0.0016540176490030011,0.0014066042261150673,0.0028914494256589668
1623769813.905279,4.685947244729839e-16,3.1691785574395438e-18,1.98,2.65,5.559297813761965e-11,-5.171439942941447e-10,1.2804877758026123,-0.00537109375,-0.001953125,2.6694234306492487e-20,0.0016765978779111628,1.6825673020207381e-16,0.0015863631445663042,0.0014020563055208595,0.0028943922699145126
1623769813.905279,4.685947244729839e-16,3.1691785574395438e-18,1.98,2.65,5.559297813761965e-11,-5.171439942941447e-10,1.2804877758026123,-0.00537109375,-0.001953125,2.6694234306492487e-20,0.0016765978779111628,1.6825673020207381e-16,0.0015863631445663042,0.0014020563055208595,0.0028943922699145126
1623769813.905279,4.685947244729839e-16,3.1691785574395438e-18,1.98,2.65,5.559297813761965e-11,-5.171439942941447e-10,1.2804877758026123,-0.00537109375,-0.001953125,2.6694234306492487e-20,0.0016765978779111628,1.6825673020207381e-16,0.0015863631445663042,0.0014020563055208595,0.0028943922699145126
1623769813.905279,4.685947244729839e-16,3.1691785574395438e-18,1.98,2.65,5.559297813761965e-11,-5.171439942941447e-10,1.2804877758026123,-0.00537109375,-0.001953125,2.6694234306492487e-20,0.0016765978779111628,1.6825673020207381e-16,0.0015863631445663042,0.0014020563055208595,0.0028943922699145126
1623769813.905279,4.685947244729839e-16,3.1691785574395438e-18,1.98,2.65,5.559297813761965e-11,-5.171439942941447e-10,1.2804877758026123,-0.00537109375,-0.001953125,2.6694234306492487e-20,0.0016765978779111628,1.6825673020207381e-16,0.0015863631445663042,0.0014020563055208595,0.0028943922699145126
1623769813.911279,4.557612961503469e-16,3.188801969276459e-18,1.98,2.65,5.559297813761965e-11,-5.171439942941447e-10,1.2804877758026123,-0.00537109375,-0.001953125,2.6537579789961677e-20,0.0018864338633912355,1.4654547446071564e-16,0.001654955747307973,0.0014200207352632428,0.002836240326973561
1623769813.911279,4.557612961503469e-16,3.188801969276459e-18,1.99,2.64,5.559297813761965e-11,-5.171439942941447e-10,1.2804877758026123,-0.00537109375,-0.001953125,2.6537579789961677e-20,0.0018864338633912355,1.4654547446071564e-16,0.001654955747307973,0.0014200207352632428,0.002836240326973561
1623769813.911279,4.557612961503469e-16,3.188801969276459e-18,1.99,2.64,5.559297813761965e-11,-5.171439942941447e-10,1.2804877758026123,-0.00537109375,-0.001953125,2.6537579789961677e-20,0.0018864338633912355,1.4654547446071564e-16,0.001654955747307973,0.0014200207352632428,0.002836240326973561
1623769813.911279,4.557612961503469e-16,3.188801969276459e-18,1.99,2.64,5.559297813761965e-11,-5.171439942941447e-10,1.2804877758026123,-0.00537109375,-0.001953125,2.6537579789961677e-20,0.0018864338633912355,1.4654547446071564e-16,0.001654955747307973,0.0014200207352632428,0.002836240326973561
1623769813.911279,4.557612961503469e-16,3.188801969276459e-18,1.99,2.64,5.559297813761965e-11,-5.171439942941447e-10,1.2804877758026123,-0.0087890625,-0.00048828125,2.6537579789961677e-20,0.0018864338633912355,1.4654547446071564e-16,0.001654955747307973,0.0014200207352632428,0.002836240326973561
1623769813.995279,4.4060537761011696e-16,3.20867385874928e-18,1.99,2.64,5.559297813761965e-11,-5.171439942941447e-10,1.2804877758026123,-0.0087890625,-0.00048828125,2.5133849173732718e-20,0.001988471416909484,1.5586337155178184e-16,0.001786343706767059,0.0014716888267608385,0.0029296967278331877
1623769813.995279,4.4060537761011696e-16,3.20867385874928e-18,1.99,2.64,5.559297813761965e-11,-5.171439942941447e-10,1.2804877758026123,-0.0087890625,-0.00048828125,2.5133849173732718e-20,0.001988471416909484,1.5586337155178184e-16,0.001786343706767059,0.0014716888267608385,0.0029296967278331877
1623769813.995279,4.4060537761011696e-16,3.20867385874928e-18,1.99,2.64,5.559297813761965e-11,-5.171439942941447e-10,1.2804877758026123,-0.0087890625,-0.00048828125,2.5133849173732718e-20,0.001988471416909484,1.5586337155178184e-16,0.001786343706767059,0.0014716888267608385,0.0029296967278331877
1623769813.995279,4.4060537761011696e-16,3.20867385874928e-18,1.99,2.64,5.559297813761965e-11,-5.171439942941447e-10,1.2804877758026123,-0.0087890625,-0.00048828125,2.5133849173732718e-20,0.001988471416909484,1.5586337155178184e-16,0.001786343706767059,0.0014716888267608385,0.0029296967278331877
1623769813.995279,4.4060537761011696e-16,3.20867385874928e-18,1.99,2.64,5.559297813761965e-11,-5.171439942941447e-10,1.2804877758026123,-0.0087890625,-0.00048828125,2.5133849173732718e-20,0.001988471416909484,1.5586337155178184e-16,0.001786343706767059,0.0014716888267608385,0.0029296967278331877
1623769814.025279,4.2713292737559453e-16,3.2103424241543896e-18,1.99,2.64,5.559297813761965e-11,-5.171439942941447e-10,1.2804877758026123,-0.0087890625,-0.00048828125,2.442126282596849e-20,0.0019241028883871093,1.433613549048507e-16,0.0017891588105573405,0.0014117480750429434,0.002894214625288066
1623769814.025279,4.2713292737559453e-16,3.2103424241543896e-18,1.99,2.64,5.559297813761965e-11,-5.171439942941447e-10,1.2804877758026123,-0.0087890625,-0.00048828125,2.442126282596849e-20,0.0019241028883871093,1.433613549048507e-16,0.0017891588105573405,0.0014117480750429434,0.002894214625288066
1623769814.025279,4.2713292737559453e-16,3.2103424241543896e-18,1.99,2.64,5.559297813761965e-11,-5.171439942941447e-10,1.2804877758026123,-0.0087890625,-0.00048828125,2.442126282596849e-20,0.0019241028883871093,1.433613549048507e-16,0.0017891588105573405,0.0014117480750429434,0.002894214625288066
1623769814.025279,4.2713292737559453e-16,3.2103424241543896e-18,1.99,2.64,5.559297813761965e-11,-5.171439942941447e-10,1.2804877758026123,-0.0087890625,-0.00048828125,2.442126282596849e-20,0.0019241028883871093,1.433613549048507e-16,0.0017891588105573405,0.0014117480750429434,0.002894214625288066
1623769814.025279,4.2713292737559453e-16,3.2103424241543896e-18,1.99,2.64,5.559297813761965e-11,-5.171439942941447e-10,1.3414634466171265,-0.0078125,0.005859375,2.442126282596849e-20,0.0019241028883871093,1.433613549048507e-16,0.0017891588105573405,0.0014117480750429434,0.002894214625288066
1623769814.085279,4.132132532539615e-16,3.2261249637459718e-18,1.99,2.64,5.559297813761965e-11,-5.171439942941447e-10,1.3414634466171265,-0.0078125,0.005859375,2.3760003414790508e-20,0.0018028155890668367,1.424337924597306e-16,0.001736049133238567,0.0014076368627163464,0.0029078408338116773
1623769814.085279,4.132132532539615e-16,3.2261249637459718e-18,1.99,2.64,5.559297813761965e-11,-5.171439942941447e-10,1.3414634466171265,-0.0078125,0.005859375,2.3760003414790508e-20,0.0018028155890668367,1.424337924597306e-16,0.001736049133238567,0.0014076368627163464,0.0029078408338116773
1623769814.085279,4.132132532539615e-16,3.2261249637459718e-18,1.99,2.64,5.559297813761965e-11,-5.171439942941447e-10,1.3414634466171265,-0.0078125,0.005859375,2.3760003414790508e-20,0.0018028155890668367,1.424337924597306e-16,0.001736049133238567,0.0014076368627163464,0.0029078408338116773
1623769814.085279,4.132132532539615e-16,3.2261249637459718e-18,1.99,2.64,5.559297813761965e-11,-5.171439942941447e-10,1.3414634466171265,-0.0078125,0.005859375,2.3760003414790508e-20,0.0018028155890668367,1.424337924597306e-16,0.001736049133238567,0.0014076368627163464,0.0029078408338116773
1623769814.085279,4.132132532539615e-16,3.2261249637459718e-18,1.99,2.64,5.559297813761965e-11,-5.171439942941447e-10,1.3414634466171265,-0.0078125,0.005859375,2.2391819130715186e-20,0.001916317286758872,1.424337924597306e-16,0.001736049133238567,0.001412250745362107,0.0029078408338116773
1623769814.145279,3.9910925215129373e-16,3.2097239886442184e-18,1.97,2.63,5.559297813761965e-11,-5.171439942941447e-10,1.3414634466171265,-0.0078125,0.005859375,2.2391819130715186e-20,0.001916317286758872,1.4031102113597175e-16,0.0017440156771929812,0.001412250745362107,0.0029213804827084005
1623769814.145279,3.9910925215129373e-16,3.2097239886442184e-18,1.97,2.63,5.559297813761965e-11,-5.171439942941447e-10,1.3414634466171265,-0.0078125,0.005859375,2.2391819130715186e-20,0.001916317286758872,1.4031102113597175e-16,0.0017440156771929812,0.001412250745362107,0.0029213804827084005
1623769814.145279,3.9910925215129373e-16,3.2097239886442184e-18,1.97,2.63,5.559297813761965e-11,-5.171439942941447e-10,1.3414634466171265,-0.0078125,0.005859375,2.2391819130715186e-20,0.001916317286758872,1.4031102113597175e-16,0.0017440156771929812,0.001412250745362107,0.0029213804827084005
1623769814.145279,3.9910925215129373e-16,3.2097239886442184e-18,1.97,2.63,5.559297813761965e-11,-5.171439942941447e-10,1.3414634466171265,-0.0078125,0.005859375,2.2391819130715186e-20,0.001916317286758872,1.4031102113597175e-16,0.0017440156771929812,0.001412250745362107,0.0029213804827084005
1623769814.145279,3.9910925215129373e-16,3.2097239886442184e-18,1.97,2.63,5.559297813761965e-11,-5.171439942941447e-10,1.2804877758026123,-0.0009765625,-0.00439453125,2.2391819130715186e-20,0.001916317286758872,1.4031102113597175e-16,0.0017440156771929812,0.001412250745362107,0.0029213804827084005
1623769814.145279,3.889164132146232e-16,3.1978711468656687e-18,1.97,2.63,5.559297813761965e-11,-5.171439942941447e-10,1.2804877758026123,-0.0009765625,-0.00439453125,2.2391819130715186e-20,0.001916317286758872,1.2085939226165947e-16,0.0017523440510726408,0.001412250745362107,0.0028405505895408192
1623769814.145279,3.889164132146232e-16,3.1978711468656687e-18,1.97,2.63,5.559297813761965e-11,-5.171439942941447e-10,1.2804877758026123,-0.0009765625,-0.00439453125,2.2391819130715186e-20,0.001916317286758872,1.2085939226165947e-16,0.0017523440510726408,0.001412250745362107,0.0028405505895408192
1623769814.145279,3.889164132146232e-16,3.1978711468656687e-18,1.97,2.63,5.559297813761965e-11,-5.171439942941447e-10,1.2804877758026123,-0.0009765625,-0.00439453125,2.2391819130715186e-20,0.001916317286758872,1.2085939226165947e-16,0.0017523440510726408,0.001412250745362107,0.0028405505895408192
1623769814.145279,3.889164132146232e-16,3.1978711468656687e-18,1.97,2.63,5.559297813761965e-11,-5.171439942941447e-10,1.2804877758026123,-0.0009765625,-0.00439453125,2.2391819130715186e-20,0.001916317286758872,1.2085939226165947e-16,0.0017523440510726408,0.001412250745362107,0.0028405505895408192
1623769814.145279,3.889164132146232e-16,3.1978711468656687e-18,1.97,2.63,5.559297813761965e-11,-5.171439942941447e-10,1.2804877758026123,-0.0009765625,-0.00439453125,2.185524034938841e-20,0.001825497617872281,1.2085939226165947e-16,0.0017523440510726408,0.001408686405386338,0.0028405505895408192
1623769814.205279,3.7778654819490185e-16,3.201418925951432e-18,1.97,2.63,5.559297813761965e-11,-5.171439942941447e-10,1.2804877758026123,-0.0009765625,-0.00439453125,2.185524034938841e-20,0.001825497617872281,1.2302232506794903e-16,0.00173690440756361,0.001408686405386338,0.0028616866864458147
1623769814.205279,3.7778654819490185e-16,3.201418925951432e-18,1.97,2.63,5.559297813761965e-11,-5.171439942941447e-10,1.2804877758026123,-0.0009765625,-0.00439453125,2.185524034938841e-20,0.001825497617872281,1.2302232506794903e-16,0.00173690440756361,0.001408686405386338,0.0028616866864458147
1623769814.205279,3.7778654819490185e-16,3.201418925951432e-18,1.97,2.63,5.559297813761965e-11,-5.171439942941447e-10,1.2804877758026123,-0.0009765625,-0.00439453125,2.185524034938841e-20,0.001825497617872281,1.2302232506794903e-16,0.00173690440756361,0.001408686405386338,0.0028616866864458147
1623769814.205279,3.7778654819490185e-16,3.201418925951432e-18,1.97,2.63,5.559297813761965e-11,-5.171439942941447e-10,1.2804877758026123,-0.0009765625,-0.00439453125,2.185524034938841e-20,0.001825497617872281,1.2302232506794903e-16,0.00173690440756361,0.001408686405386338,0.0028616866864458147
1623769814.205279,3.7778654819490185e-16,3.201418925951432e-18,1.97,2.63,5.559297813761965e-11,-5.171439942941447e-10,1.2804877758026123,-0.00390625,0.01025390625,2.185524034938841e-20,0.001825497617872281,1.2302232506794903e-16,0.00173690440756361,0.001408686405386338,0.0028616866864458147
1623769814.265279,3.6604730398422473e-16,3.220511475622168e-18,1.97,2.63,5.559297813761965e-11,-5.171439942941447e-10,1.2804877758026123,-0.00390625,0.01025390625,2.1339175852729968e-20,0.0017106946566566937,1.2337935327036339e-16,0.0016710449656689632,0.00140387763206476,0.0028772450719133985
1623769814.265279,3.6604730398422473e-16,3.220511475622168e-18,1.97,2.63,5.559297813761965e-11,-5.171439942941447e-10,1.2804877758026123,-0.00390625,0.01025390625,2.1339175852729968e-20,0.0017106946566566937,1.2337935327036339e-16,0.0016710449656689632,0.00140387763206476,0.0028772450719133985
1623769814.265279,3.6604730398422473e-16,3.220511475622168e-18,1.97,2.63,5.559297813761965e-11,-5.171439942941447e-10,1.2804877758026123,-0.00390625,0.01025390625,2.1339175852729968e-20,0.0017106946566566937,1.2337935327036339e-16,0.0016710449656689632,0.00140387763206476,0.0028772450719133985
1623769814.265279,3.6604730398422473e-16,3.220511475622168e-18,1.97,2.63,5.559297813761965e-11,-5.171439942941447e-10,1.2804877758026123,-0.00390625,0.01025390625,2.1339175852729968e-20,0.0017106946566566937,1.2337935327036339e-16,0.0016710449656689632,0.00140387763206476,0.0028772450719133985
1623769814.265279,3.6604730398422473e-16,3.220511475622168e-18,1.97,2.63,5.559297813761965e-11,-5.171439942941447e-10,1.2804877758026123,-0.00390625,0.01025390625,2.1339175852729968e-20,0.0017106946566566937,1.2337935327036339e-16,0.0016710449656689632,0.00140387763206476,0.0028772450719133985
1623769814.325279,3.5397110424464296e-16,3.209618424610079e-18,1.96,2.63,5.559297813761965e-11,-5.171439942941447e-10,1.2804877758026123,-0.00390625,0.01025390625,2.0109606568038933e-20,0.001744677146121223,1.2238310885214912e-16,0.0016416978103485518,0.0014044230917402696,0.002889552800281642
1623769814.325279,3.5397110424464296e-16,3.209618424610079e-18,1.96,2.63,5.559297813761965e-11,-5.171439942941447e-10,1.2804877758026123,-0.00390625,0.01025390625,2.0109606568038933e-20,0.001744677146121223,1.2238310885214912e-16,0.0016416978103485518,0.0014044230917402696,0.002889552800281642
1623769814.325279,3.5397110424464296e-16,3.209618424610079e-18,1.96,2.63,5.559297813761965e-11,-5.171439942941447e-10,1.2804877758026123,-0.00390625,0.01025390625,2.0109606568038933e-20,0.001744677146121223,1.2238310885214912e-16,0.0016416978103485518,0.0014044230917402696,0.002889552800281642
1623769814.325279,3.5397110424464296e-16,3.209618424610079e-18,1.96,2.63,5.559297813761965e-11,-5.171439942941447e-10,1.3414634466171265,-0.0068359375,-0.00390625,2.0109606568038933e-20,0.001744677146121223,1.2238310885214912e-16,0.0016416978103485518,0.0014044230917402696,0.002889552800281642
1623769814.325279,3.5397110424464296e-16,3.209618424610079e-18,1.96,2.63,5.559297813761965e-11,-5.171439942941447e-10,1.3414634466171265,-0.0068359375,-0.00390625,2.0109606568038933e-20,0.001744677146121223,1.2238310885214912e-16,0.0016416978103485518,0.0014044230917402696,0.002889552800281642
1623769814.391279,3.4148733593696707e-16,3.2153759640508937e-18,1.96,2.63,5.559297813761965e-11,-5.171439942941447e-10,1.3414634466171265,-0.0068359375,-0.00390625,1.958030768921851e-20,0.0018426796364256863,1.2196798155473872e-16,0.00168747590653493,0.0014175015340228264,0.0029222556843943176
1623769814.391279,3.4148733593696707e-16,3.2153759640508937e-18,1.96,2.63,5.559297813761965e-11,-5.171439942941447e-10,1.3414634466171265,-0.0068359375,-0.00390625,1.958030768921851e-20,0.0018426796364256863,1.2196798155473872e-16,0.00168747590653493,0.0014175015340228264,0.0029222556843943176
1623769814.391279,3.4148733593696707e-16,3.2153759640508937e-18,1.96,2.63,5.559297813761965e-11,-5.171439942941447e-10,1.3414634466171265,-0.0068359375,-0.00390625,1.958030768921851e-20,0.0018426796364256863,1.2196798155473872e-16,0.00168747590653493,0.0014175015340228264,0.0029222556843943176
1623769814.391279,3.4148733593696707e-16,3.2153759640508937e-18,1.96,2.63,5.559297813761965e-11,-5.171439942941447e-10,1.3414634466171265,-0.0068359375,-0.00390625,1.958030768921851e-20,0.0018426796364256863,1.2196798155473872e-16,0.00168747590653493,0.0014175015340228264,0.0029222556843943176
1623769814.391279,3.4148733593696707e-16,3.2153759640508937e-18,1.96,2.63,5.559297813761965e-11,-5.171439942941447e-10,1.3414634466171265,-0.0068359375,-0.00390625,1.855279171236287e-20,0.0017385440284559007,1.2196798155473872e-16,0.00168747590653493,0.0014038992295506468,0.0029222556843943176
1623769814.4452791,3.2943169800957077e-16,3.1955147710515057e-18,1.98,2.64,5.559297813761965e-11,-5.171439942941447e-10,1.3414634466171265,-0.0068359375,-0.00390625,1.855279171236287e-20,0.0017385440284559007,1.17420504774016e-16,0.0016451244946541791,0.0014038992295506468,0.00291982208866954
1623769814.4452791,3.2943169800957077e-16,3.1955147710515057e-18,1.98,2.64,5.559297813761965e-11,-5.171439942941447e-10,1.3414634466171265,-0.0068359375,-0.00390625,1.855279171236287e-20,0.0017385440284559007,1.17420504774016e-16,0.0016451244946541791,0.0014038992295506468,0.00291982208866954
1623769814.4452791,3.2943169800957077e-16,3.1955147710515057e-18,1.98,2.64,5.559297813761965e-11,-5.171439942941447e-10,1.3414634466171265,-0.0068359375,-0.00390625,1.855279171236287e-20,0.0017385440284559007,1.17420504774016e-16,0.0016451244946541791,0.0014038992295506468,0.00291982208866954
1623769814.4452791,3.2943169800957077e-16,3.1955147710515057e-18,1.98,2.64,5.69828004226558e-11,-5.300725969270559e-10,1.3414634466171265,-0.0068359375,-0.00390625,1.855279171236287e-20,0.0017385440284559007,1.17420504774016e-16,0.0016451244946541791,0.0014038992295506468,0.00291982208866954
1623769814.4452791,3.2943169800957077e-16,3.1955147710515057e-18,1.98,2.64,5.69828004226558e-11,-5.300725969270559e-10,1.402438998222351,-0.00390625,-0.01025390625,1.7466507453592836e-20,0.00162834403970408,1.17420504774016e-16,0.0016451244946541791,0.0013996115445907991,0.00291982208866954
1623769814.505279,3.175205320032902e-16,3.1510809497518235e-18,1.98,2.64,5.69828004226558e-11,-5.300725969270559e-10,1.402438998222351,-0.00390625,-0.01025390625,1.7466507453592836e-20,0.00162834403970408,1.1443932826256274e-16,0.0015670523798432558,0.0013996115445907991,0.0029210978809830397
1623769814.505279,3.175205320032902e-16,3.1510809497518235e-18,1.98,2.64,5.69828004226558e-11,-5.300725969270559e-10,1.402438998222351,-0.00390625,-0.01025390625,1.7466507453592836e-20,0.00162834403970408,1.1443932826256274e-16,0.0015670523798432558,0.0013996115445907991,0.0029210978809830397
1623769814.505279,3.175205320032902e-16,3.1510809497518235e-18,1.98,2.64,5.69828004226558e-11,-5.300725969270559e-10,1.402438998222351,-0.00390625,-0.01025390625,1.7466507453592836e-20,0.00162834403970408,1.1443932826256274e-16,0.0015670523798432558,0.0013996115445907991,0.0029210978809830397
1623769814.505279,3.175205320032902e-16,3.1510809497518235e-18,1.98,2.64,5.69828004226558e-11,-5.300725969270559e-10,1.402438998222351,-0.00390625,-0.01025390625,1.7466507453592836e-20,0.00162834403970408,1.1443932826256274e-16,0.0015670523798432558,0.0013996115445907991,0.0029210978809830397
1623769814.505279,3.175205320032902e-16,3.1510809497518235e-18,1.98,2.64,5.559297813761965e-11,-5.171439942941447e-10,1.402438998222351,-0.00390625,-0.01025390625,1.7468734243462374e-20,0.0017946565501181556,1.1443932826256274e-16,0.0015670523798432558,0.0014046461995333955,0.0029210978809830397
1623769814.505279,3.0899794555935067e-16,3.119288001450109e-18,1.99,2.63,5.559297813761965e-11,-5.171439942941447e-10,1.402438998222351,-0.00390625,-0.01025390625,1.7468734243462374e-20,0.0017946565501181556,9.816352602381677e-17,0.0016046120348182885,0.0014046461995333955,0.002841901599699729
1623769814.505279,3.0899794555935067e-16,3.119288001450109e-18,1.99,2.63,5.559297813761965e-11,-5.171439942941447e-10,1.402438998222351,-0.00390625,-0.01025390625,1.7468734243462374e-20,0.0017946565501181556,9.816352602381677e-17,0.0016046120348182885,0.0014046461995333955,0.002841901599699729
1623769814.505279,3.0899794555935067e-16,3.119288001450109e-18,1.99,2.63,5.559297813761965e-11,-5.171439942941447e-10,1.402438998222351,-0.00390625,-0.01025390625,1.7468734243462374e-20,0.0017946565501181556,9.816352602381677e-17,0.0016046120348182885,0.0014046461995333955,0.002841901599699729
1623769814.505279,3.0899794555935067e-16,3.119288001450109e-18,1.99,2.63,5.559297813761965e-11,-5.171439942941447e-10,1.2195122241973877,0.0,-0.00390625,1.7468734243462374e-20,0.0017946565501181556,9.816352602381677e-17,0.0016046120348182885,0.0014046461995333955,0.002841901599699729
1623769814.505279,3.0899794555935067e-16,3.119288001450109e-18,1.99,2.63,5.559297813761965e-11,-5.171439942941447e-10,1.2195122241973877,0.0,-0.00390625,1.5903566011306356e-20,0.001745942582890191,9.816352602381677e-17,0.0016046120348182885,0.0014617990763082422,0.002841901599699729
1623769814.5984309,2.984819227099327e-16,3.0486041769408482e-18,1.99,2.63,5.559297813761965e-11,-5.171439942941447e-10,1.2195122241973877,0.0,-0.00390625,1.5903566011306356e-20,0.001745942582890191,1.0684097252521254e-16,0.001641434600615812,0.0014617990763082422,0.0029414720870243167
1623769814.5984309,2.984819227099327e-16,3.0486041769408482e-18,1.99,2.63,5.559297813761965e-11,-5.171439942941447e-10,1.2195122241973877,0.0,-0.00390625,1.5903566011306356e-20,0.001745942582890191,1.0684097252521254e-16,0.001641434600615812,0.0014617990763082422,0.0029414720870243167
1623769814.5984309,2.984819227099327e-16,3.0486041769408482e-18,1.99,2.63,5.559297813761965e-11,-5.171439942941447e-10,1.2195122241973877,0.0,-0.00390625,1.5903566011306356e-20,0.001745942582890191,1.0684097252521254e-16,0.001641434600615812,0.0014617990763082422,0.0029414720870243167
1623769814.5984309,2.984819227099327e-16,3.0486041769408482e-18,1.99,2.63,5.559297813761965e-11,-5.171439942941447e-10,1.2195122241973877,0.0,-0.00390625,1.5903566011306356e-20,0.001745942582890191,1.0684097252521254e-16,0.001641434600615812,0.0014617990763082422,0.0029414720870243167
1623769814.624431,2.8935247284832267e-16,2.9807119361578014e-18,1.99,2.63,5.559297813761965e-11,-5.171439942941447e-10,1.2195122241973877,0.0,-0.00390625,1.5520732685907142e-20,0.0016961184717125607,9.716365654028847e-17,0.0016136655847860855,0.0014018111568802798,0.002893634203938305
1623769814.624431,2.8935247284832267e-16,2.9807119361578014e-18,2.0,2.63,5.559297813761965e-11,-5.171439942941447e-10,1.2195122241973877,0.0,-0.00390625,1.5520732685907142e-20,0.0016961184717125607,9.716365654028847e-17,0.0016136655847860855,0.0014018111568802798,0.002893634203938305
1623769814.624431,2.8935247284832267e-16,2.9807119361578014e-18,2.0,2.63,5.4269339022638974e-11,-5.048310658395394e-10,1.2195122241973877,0.0,-0.00390625,1.5520732685907142e-20,0.0016961184717125607,9.716365654028847e-17,0.0016136655847860855,0.0014018111568802798,0.002893634203938305
1623769814.624431,2.8935247284832267e-16,2.9807119361578014e-18,2.0,2.63,5.4269339022638974e-11,-5.048310658395394e-10,1.2195122241973877,0.0,-0.00390625,1.5520732685907142e-20,0.0016961184717125607,9.716365654028847e-17,0.0016136655847860855,0.0014018111568802798,0.002893634203938305
1623769814.624431,2.8935247284832267e-16,2.9807119361578014e-18,2.0,2.63,5.4269339022638974e-11,-5.048310658395394e-10,1.3414634466171265,0.00244140625,0.0068359375,1.5520732685907142e-20,0.0016961184717125607,9.716365654028847e-17,0.0016136655847860855,0.0014018111568802798,0.002893634203938305
1623769814.6844308,2.799225373550974e-16,2.9405740100753703e-18,2.0,2.63,5.4269339022638974e-11,-5.048310658395394e-10,1.3414634466171265,0.00244140625,0.0068359375,1.537920046828015e-20,0.001588890650768605,9.652726517276909e-17,0.0015467916158546711,0.001397729226234831,0.0028972618680507037
1623769814.6844308,2.799225373550974e-16,2.9405740100753703e-18,2.0,2.63,5.4269339022638974e-11,-5.048310658395394e-10,1.3414634466171265,0.00244140625,0.0068359375,1.537920046828015e-20,0.001588890650768605,9.652726517276909e-17,0.0015467916158546711,0.001397729226234831,0.0028972618680507037
1623769814.6844308,2.799225373550974e-16,2.9405740100753703e-18,2.0,2.63,5.4269339022638974e-11,-5.048310658395394e-10,1.3414634466171265,0.00244140625,0.0068359375,1.537920046828015e-20,0.001588890650768605,9.652726517276909e-17,0.0015467916158546711,0.001397729226234831,0.0028972618680507037
1623769814.6844308,2.799225373550974e-16,2.9405740100753703e-18,2.0,2.63,5.559297813761965e-11,-5.171439942941447e-10,1.3414634466171265,0.00244140625,0.0068359375,1.537920046828015e-20,0.001588890650768605,9.652726517276909e-17,0.0015467916158546711,0.001397729226234831,0.0028972618680507037
1623769814.6844308,2.799225373550974e-16,2.9405740100753703e-18,2.0,2.63,5.559297813761965e-11,-5.171439942941447e-10,1.3414634466171265,0.00244140625,0.0068359375,1.537920046828015e-20,0.001588890650768605,9.652726517276909e-17,0.0015467916158546711,0.001397729226234831,0.0028972618680507037
1623769814.744431,2.7036771196653923e-16,2.8813884854023853e-18,2.0,2.63,5.559297813761965e-11,-5.171439942941447e-10,1.3414634466171265,0.00244140625,0.0068359375,1.4503430148348986e-20,0.0017670946998609713,9.508258492897258e-17,0.0015706378752681665,0.0014046372709219674,0.002902489926757869
1623769814.744431,2.7036771196653923e-16,2.8813884854023853e-18,2.0,2.63,5.559297813761965e-11,-5.171439942941447e-10,1.3414634466171265,0.00244140625,0.0068359375,1.4503430148348986e-20,0.0017670946998609713,9.508258492897258e-17,0.0015706378752681665,0.0014046372709219674,0.002902489926757869
1623769814.744431,2.7036771196653923e-16,2.8813884854023853e-18,2.0,2.63,5.559297813761965e-11,-5.171439942941447e-10,1.3414634466171265,0.00244140625,0.0068359375,1.4503430148348986e-20,0.0017670946998609713,9.508258492897258e-17,0.0015706378752681665,0.0014046372709219674,0.002902489926757869
1623769814.744431,2.7036771196653923e-16,2.8813884854023853e-18,2.0,2.63,5.559297813761965e-11,-5.171439942941447e-10,1.3414634466171265,0.00244140625,0.0068359375,1.4503430148348986e-20,0.0017670946998609713,9.508258492897258e-17,0.0015706378752681665,0.0014046372709219674,0.002902489926757869
1623769814.744431,2.7036771196653923e-16,2.8813884854023853e-18,2.0,2.63,5.559297813761965e-11,-5.171439942941447e-10,1.2804877758026123,-0.00732421875,0.01025390625,1.4503430148348986e-20,0.0017670946998609713,9.508258492897258e-17,0.0015706378752681665,0.0014046372709219674,0.002902489926757869
1623769814.744431,2.6346257306975787e-16,2.838615932808548e-18,2.0,2.63,5.559297813761965e-11,-5.171439942941447e-10,1.2804877758026123,-0.00732421875,0.01025390625,1.4503430148348986e-20,0.0017670946998609713,8.190073139161133e-17,0.0015856428971309567,0.0014046372709219674,0.00282367796892113
1623769814.744431,2.6346257306975787e-16,2.838615932808548e-18,2.0,2.63,5.559297813761965e-11,-5.171439942941447e-10,1.2804877758026123,-0.00732421875,0.01025390625,1.4503430148348986e-20,0.0017670946998609713,8.190073139161133e-17,0.0015856428971309567,0.0014046372709219674,0.00282367796892113
1623769814.744431,2.6346257306975787e-16,2.838615932808548e-18,2.0,2.63,5.559297813761965e-11,-5.171439942941447e-10,1.2804877758026123,-0.00732421875,0.01025390625,1.4503430148348986e-20,0.0017670946998609713,8.190073139161133e-17,0.0015856428971309567,0.0014046372709219674,0.00282367796892113
1623769814.744431,2.6346257306975787e-16,2.838615932808548e-18,2.0,2.63,5.559297813761965e-11,-5.171439942941447e-10,1.2804877758026123,-0.00732421875,0.01025390625,1.4503430148348986e-20,0.0017670946998609713,8.190073139161133e-17,0.0015856428971309567,0.0014046372709219674,0.00282367796892113
1623769814.744431,2.6346257306975787e-16,2.838615932808548e-18,2.0,2.63,5.559297813761965e-11,-5.171439942941447e-10,1.2804877758026123,-0.00732421875,0.01025390625,1.3635565803245975e-20,0.0017355913981908094,8.190073139161133e-17,0.0015856428971309567,0.0014066846027790407,0.00282367796892113
1623769814.806431,2.558547811838761e-16,2.7765218119165515e-18,2.0,2.63,5.559297813761965e-11,-5.171439942941447e-10,1.2804877758026123,-0.00732421875,0.01025390625,1.3635565803245975e-20,0.0017355913981908094,8.375775467690559e-17,0.0016038500168273219,0.0014066846027790407,0.0028449268707106215
1623769814.806431,2.558547811838761e-16,2.7765218119165515e-18,2.0,2.63,5.559297813761965e-11,-5.171439942941447e-10,1.2804877758026123,-0.00732421875,0.01025390625,1.3635565803245975e-20,0.0017355913981908094,8.375775467690559e-17,0.0016038500168273219,0.0014066846027790407,0.0028449268707106215
1623769814.806431,2.558547811838761e-16,2.7765218119165515e-18,2.0,2.63,5.559297813761965e-11,-5.171439942941447e-10,1.2804877758026123,-0.00732421875,0.01025390625,1.3635565803245975e-20,0.0017355913981908094,8.375775467690559e-17,0.0016038500168273219,0.0014066846027790407,0.0028449268707106215
1623769814.806431,2.558547811838761e-16,2.7765218119165515e-18,2.0,2.63,5.559297813761965e-11,-5.171439942941447e-10,1.2804877758026123,-0.00048828125,0.00341796875,1.3635565803245975e-20,0.0017355913981908094,8.375775467690559e-17,0.0016038500168273219,0.0014066846027790407,0.0028449268707106215
1623769814.806431,2.558547811838761e-16,2.7765218119165515e-18,2.0,2.63,5.559297813761965e-11,-5.171439942941447e-10,1.2804877758026123,-0.00048828125,0.00341796875,1.3635565803245975e-20,0.0017355913981908094,8.375775467690559e-17,0.0016038500168273219,0.0014066846027790407,0.0028449268707106215
1623769814.890431,2.4702998150526804e-16,2.68618944495119e-18,2.0,2.63,5.559297813761965e-11,-5.171439942941447e-10,1.2804877758026123,-0.00048828125,0.00341796875,1.2537452164058232e-20,0.0015791627253736612,8.84230838156827e-17,0.0015568034061700252,0.0014403030223769837,0.002920055776332018
1623769814.890431,2.4702998150526804e-16,2.68618944495119e-18,2.0,2.63,5.559297813761965e-11,-5.171439942941447e-10,1.2804877758026123,-0.00048828125,0.00341796875,1.2537452164058232e-20,0.0015791627253736612,8.84230838156827e-17,0.0015568034061700252,0.0014403030223769837,0.002920055776332018
1623769814.890431,2.4702998150526804e-16,2.68618944495119e-18,2.0,2.63,5.559297813761965e-11,-5.171439942941447e-10,1.2804877758026123,-0.00048828125,0.00341796875,1.2537452164058232e-20,0.0015791627253736612,8.84230838156827e-17,0.0015568034061700252,0.0014403030223769837,0.002920055776332018
1623769814.890431,2.4702998150526804e-16,2.68618944495119e-18,2.0,2.63,5.559297813761965e-11,-5.171439942941447e-10,1.2804877758026123,-0.00048828125,0.00341796875,1.2537452164058232e-20,0.0015791627253736612,8.84230838156827e-17,0.0015568034061700252,0.0014403030223769837,0.002920055776332018
1623769814.890431,2.4702998150526804e-16,2.68618944495119e-18,2.0,2.63,5.559297813761965e-11,-5.171439942941447e-10,1.2804877758026123,-0.00048828125,0.00341796875,1.214049727928212e-20,0.0015215568791740392,8.84230838156827e-17,0.0015568034061700252,0.0013953992027759489,0.002920055776332018
1623769814.9244308,2.3912162346778544e-16,2.5994942651275396e-18,2.0,2.63,5.559297813761965e-11,-5.171439942941447e-10,1.2804877758026123,-0.00048828125,0.00341796875,1.214049727928212e-20,0.0015215568791740392,8.84230838156827e-17,0.0015568034061700252,0.0013953992027759489,0.002920055776332018
1623769814.9244308,2.3912162346778544e-16,2.5994942651275396e-18,2.0,2.64,5.559297813761965e-11,-5.171439942941447e-10,1.2804877758026123,-0.00048828125,0.00341796875,1.214049727928212e-20,0.0015215568791740392,8.175069478182222e-17,0.0014934922586764812,0.0013953992027759489,0.0028812620737212586
1623769814.9244308,2.3912162346778544e-16,2.5994942651275396e-18,2.0,2.64,5.559297813761965e-11,-5.171439942941447e-10,1.2804877758026123,-0.00048828125,0.00341796875,1.214049727928212e-20,0.0015215568791740392,8.175069478182222e-17,0.0014934922586764812,0.0013953992027759489,0.0028812620737212586
1623769814.9244308,2.3912162346778544e-16,2.5994942651275396e-18,2.0,2.64,5.559297813761965e-11,-5.171439942941447e-10,1.3414634466171265,-0.005859375,0.00048828125,1.214049727928212e-20,0.0015215568791740392,8.175069478182222e-17,0.0014934922586764812,0.0013953992027759489,0.0028812620737212586
1623769814.9244308,2.3912162346778544e-16,2.5994942651275396e-18,2.0,2.64,5.559297813761965e-11,-5.171439942941447e-10,1.3414634466171265,-0.005859375,0.00048828125,1.214049727928212e-20,0.0015215568791740392,8.175069478182222e-17,0.0014934922586764812,0.0013953992027759489,0.0028812620737212586
1623769814.994431,0.002329753647150494,3.6175763209951813e-10,2.0,2.64,5.559297813761965e-11,-5.171439942941447e-10,1.3414634466171265,-0.005859375,0.00048828125,0.027362763847730905,0.0015637445369889704,0.00444587832290296,0.001480805469111361,0.0014105370724397973,0.002910757316152771
1623769814.994431,0.002329753647150494,3.6175763209951813e-10,2.0,2.64,5.559297813761965e-11,-5.171439942941447e-10,1.3414634466171265,-0.005859375,0.00048828125,0.027362763847730905,0.0015637445369889704,0.00444587832290296,0.001480805469111361,0.0014105370724397973,0.002910757316152771
1623769814.994431,0.002329753647150494,3.6175763209951813e-10,2.0,2.64,5.559297813761965e-11,-5.171439942941447e-10,1.3414634466171265,-0.005859375,0.00048828125,0.027362763847730905,0.0015637445369889704,0.00444587832290296,0.001480805469111361,0.0014105370724397973,0.002910757316152771
1623769814.994431,0.002329753647150494,3.6175763209951813e-10,2.0,2.64,0.007840556092560291,1.0637521654643933e-06,1.3414634466171265,-0.005859375,0.00048828125,0.027362763847730905,0.0015637445369889704,0.00444587832290296,0.001480805469111361,0.0014105370724397973,0.002910757316152771
1623769814.994431,0.002329753647150494,3.6175763209951813e-10,2.0,2.64,0.007840556092560291,1.0637521654643933e-06,1.3414634466171265,-0.005859375,0.00048828125,0.027362763847730905,0.0015637445369889704,0.00444587832290296,0.001480805469111361,0.0014105370724397973,0.002910757316152771
1623769815.044431,0.005751841084746404,5.264448244048544e-09,1.98,2.64,0.007840556092560291,1.0637521654643933e-06,1.3414634466171265,-0.005859375,0.00048828125,0.0448620406172093,0.001481317246318872,0.00444587832290296,0.001480805469111361,0.0013921765600351083,0.002910757316152771
1623769815.044431,0.005751841084746404,5.264448244048544e-09,1.98,2.64,0.007840556092560291,1.0637521654643933e-06,1.3414634466171265,-0.005859375,0.00048828125,0.0448620406172093,0.001481317246318872,0.00444587832290296,0.001480805469111361,0.0013921765600351083,0.002910757316152771
1623769815.044431,0.005751841084746404,5.264448244048544e-09,1.98,2.64,0.007840556092560291,1.0637521654643933e-06,1.3414634466171265,-0.005859375,0.00048828125,0.0448620406172093,0.001481317246318872,0.011095332892923832,0.0014228292676490013,0.0013921765600351083,0.0028908931313309234
1623769815.044431,0.005751841084746404,5.264448244048544e-09,1.98,2.64,0.007840556092560291,1.0637521654643933e-06,1.3414634466171265,-0.005859375,0.00048828125,0.0448620406172093,0.001481317246318872,0.011095332892923832,0.0014228292676490013,0.0013921765600351083,0.0028908931313309234
1623769815.044431,0.005751841084746404,5.264448244048544e-09,1.98,2.64,0.06272482872009277,-2.1286409719323274e-06,1.9512195587158203,0.00341796875,-0.08447265625,0.0448620406172093,0.001481317246318872,0.011095332892923832,0.0014228292676490013,0.0013921765600351083,0.0028908931313309234
1623769815.104431,0.010451600045611135,-8.348146405911794e-08,1.98,2.64,0.06272482872009277,-2.1286409719323274e-06,1.9512195587158203,0.00341796875,-0.08447265625,0.06599598764893065,0.0013535690936094394,0.011095332892923832,0.0014228292676490013,0.0008305362273395749,0.0028908931313309234
1623769815.104431,0.010451600045611135,-8.348146405911794e-08,1.98,2.64,0.06272482872009277,-2.1286409719323274e-06,1.9512195587158203,0.00341796875,-0.08447265625,0.06599598764893065,0.0013535690936094394,0.011095332892923832,0.0014228292676490013,0.0008305362273395749,0.0028908931313309234
1623769815.104431,0.010451600045611135,-8.348146405911794e-08,1.98,2.64,0.06272482872009277,-2.1286409719323274e-06,1.9512195587158203,0.00341796875,-0.08447265625,0.06599598764893065,0.0013535690936094394,0.020421398420227267,0.0013054332704137926,0.0008305362273395749,0.0028459691647433312
1623769815.104431,0.010451600045611135,-8.348146405911794e-08,1.98,2.64,0.06272482872009277,-2.1286409719323274e-06,1.9512195587158203,0.00341796875,-0.08447265625,0.06599598764893065,0.0013535690936094394,0.020421398420227267,0.0013054332704137926,0.0008305362273395749,0.0028459691647433312
1623769815.104431,0.010451600045611135,-8.348146405911794e-08,1.98,2.64,0.06272482872009277,-2.1286409719323274e-06,1.9512195587158203,0.00341796875,-0.08447265625,0.06599598764893065,0.0013535690936094394,0.020421398420227267,0.0013054332704137926,0.0008305362273395749,0.0028459691647433312
1623769815.104431,0.013822726627615287,-1.4581080019809279e-07,1.98,2.64,0.1311420053243637,0.016486596316099167,1.9512195587158203,0.00341796875,-0.08447265625,0.06599598764911109,-0.0009302558852615549,0.020421398420227267,0.0013054332704137926,0.0007602466001890827,0.0028459691647433312
1623769815.104431,0.013822726627615287,-1.4581080019809279e-07,1.98,2.64,0.1311420053243637,0.016486596316099167,1.9512195587158203,0.00341796875,-0.08447265625,0.06599598764911109,-0.0009302558852615549,0.020421398420227267,0.0013054332704137926,0.0007602466001890827,0.0028459691647433312
1623769815.104431,0.013822726627615287,-1.4581080019809279e-07,1.98,2.64,0.1311420053243637,0.016486596316099167,1.9512195587158203,0.00341796875,-0.08447265625,0.06599598764911109,-0.0009302558852615549,0.020421398420227267,0.0013054332704137926,0.0007602466001890827,0.0028459691647433312
1623769815.104431,0.013822726627615287,-1.4581080019809279e-07,1.98,2.64,0.1311420053243637,0.016486596316099167,2.2560975551605225,0.00048828125,-0.251953125,0.06599598764911109,-0.0009302558852615549,0.020421398420227267,0.0013054332704137926,0.0007602466001890827,0.0028459691647433312
1623769815.104431,0.013822726627615287,-1.4581080019809279e-07,1.98,2.64,0.1311420053243637,0.016486596316099167,2.2560975551605225,0.00048828125,-0.251953125,0.06599598764911109,-0.0009302558852615549,0.020421398420227267,0.0013054332704137926,0.0007602466001890827,0.0028459691647433312
1623769815.202431,0.019795351007023478,-4.271168395221291e-07,1.98,2.64,0.24483036994934082,0.016487127169966698,2.2560975551605225,0.00048828125,-0.251953125,0.10010924552687227,0.004268558187051818,0.026863417618159566,0.0004751634736315062,0.0007602460408155835,0.002680701184870036
1623769815.202431,0.019795351007023478,-4.271168395221291e-07,1.98,2.64,0.24483036994934082,0.016487127169966698,2.2560975551605225,0.00048828125,-0.251953125,0.10010924552687227,0.004268558187051818,0.026863417618159566,0.0004751634736315062,0.0007602460408155835,0.002680701184870036
1623769815.202431,0.019795351007023478,-4.271168395221291e-07,1.98,2.64,0.24483036994934082,0.016487127169966698,2.2560975551605225,0.00048828125,-0.251953125,0.10010924552687227,0.004268558187051818,0.026863417618159566,0.0004751634736315062,0.0007602460408155835,0.002680701184870036
1623769815.202431,0.019795351007023478,-4.271168395221291e-07,1.98,2.64,0.24483036994934082,0.016487127169966698,2.2560975551605225,0.00048828125,-0.251953125,0.10010924552687227,0.004268558187051818,0.026863417618159566,0.0004751634736315062,0.0007602460408155835,0.002680701184870036
1623769815.202431,0.019795351007023478,-4.271168395221291e-07,1.98,2.64,0.24483036994934082,0.016487127169966698,2.2560975551605225,0.00048828125,-0.251953125,0.10239977299822967,0.004130211958623184,0.0396472914259189,0.0022515474700146934,-0.00018467167052197398,0.0027672626682146745
1623769815.224431,0.02473675115393499,-1.542879451170296e-06,1.99,2.63,0.24483036994934082,0.016487127169966698,2.2560975551605225,0.00048828125,-0.251953125,0.10239977299822967,0.004130211958623184,0.0396472914259189,0.0022515474700146934,-0.00018467167052197398,0.0027672626682146745
1623769815.224431,0.02473675115393499,-1.542879451170296e-06,1.99,2.63,0.3638485372066498,-0.01689794473350048,2.2560975551605225,0.00048828125,-0.251953125,0.10239977299822967,0.004130211958623184,0.04952924365251355,0.0028203605481612764,-0.00018467167052197398,0.0026762231281129553
1623769815.224431,0.02473675115393499,-1.542879451170296e-06,1.99,2.63,0.3638485372066498,-0.01689794473350048,2.2560975551605225,0.00048828125,-0.251953125,0.10239977299822967,0.004130211958623184,0.04952924365251355,0.0028203605481612764,-0.00018467167052197398,0.0026762231281129553
1623769815.224431,0.02473675115393499,-1.542879451170296e-06,1.99,2.63,0.3638485372066498,-0.01689794473350048,2.2560975551605225,0.00048828125,-0.251953125,0.10239977299822967,0.004130211958623184,0.04952924365251355,0.0028203605481612764,-0.00018467167052197398,0.0026762231281129553
1623769815.224431,0.02473675115393499,-1.542879451170296e-06,1.99,2.63,0.3638485372066498,-0.01689794473350048,1.3414634466171265,-0.19189453125,-0.3154296875,0.10239977299822967,0.004130211958623184,0.04952924365251355,0.0028203605481612764,-0.00018467167052197398,0.0026762231281129553
1623769815.284431,0.02928494572928159,-4.1792672671252236e-06,1.99,2.63,0.3638485372066498,-0.01689794473350048,1.3414634466171265,-0.19189453125,-0.3154296875,0.1064243872143518,0.00381977379585769,0.04952924365251355,0.0028203605481612764,-0.0010938815037096004,0.0026762231281129553
1623769815.284431,0.02928494572928159,-4.1792672671252236e-06,1.99,2.63,0.3638485372066498,-0.01689794473350048,1.3414634466171265,-0.19189453125,-0.3154296875,0.1064243872143518,0.00381977379585769,0.04952924365251355,0.0028203605481612764,-0.0010938815037096004,0.0026762231281129553
1623769815.284431,0.02928494572928159,-4.1792672671252236e-06,1.99,2.63,0.458673894405365,9.950291257609933e-08,1.3414634466171265,-0.19189453125,-0.3154296875,0.1064243872143518,0.00381977379585769,0.04952924365251355,0.0028203605481612764,-0.0010938815037096004,0.0026762231281129553
1623769815.284431,0.02928494572928159,-4.1792672671252236e-06,1.99,2.63,0.458673894405365,9.950291257609933e-08,1.3414634466171265,-0.19189453125,-0.3154296875,0.1064243872143518,0.00381977379585769,0.04952924365251355,0.0028203605481612764,-0.0010938815037096004,0.0026762231281129553
1623769815.284431,0.02928494572928159,-4.1792672671252236e-06,1.99,2.63,0.458673894405365,9.950291257609933e-08,1.3414634466171265,-0.19189453125,-0.3154296875,0.1064243872143518,0.00381977379585769,0.05969815343183642,0.003012362320942722,-0.0010938815037096004,0.0026176063175726884
1623769815.344431,0.03393100130589593,-8.627549801596928e-06,2.0,2.61,0.458673894405365,9.950291257609933e-08,1.3414634466171265,-0.19189453125,-0.3154296875,0.1166751758813644,0.012244921805718501,0.05969815343183642,0.003012362320942722,-0.0009763621252147494,0.0026176063175726884
1623769815.344431,0.03393100130589593,-8.627549801596928e-06,2.0,2.61,0.458673894405365,9.950291257609933e-08,1.3414634466171265,-0.19189453125,-0.3154296875,0.1166751758813644,0.012244921805718501,0.05969815343183642,0.003012362320942722,-0.0009763621252147494,0.0026176063175726884
1623769815.344431,0.03393100130589593,-8.627549801596928e-06,2.0,2.61,0.458673894405365,9.950291257609933e-08,3.658536672592163,-0.04248046875,0.09228515625,0.1166751758813644,0.012244921805718501,0.05969815343183642,0.003012362320942722,-0.0009763621252147494,0.0026176063175726884
1623769815.344431,0.03393100130589593,-8.627549801596928e-06,2.0,2.61,0.5253188014030457,-5.331734769242757e-07,3.658536672592163,-0.04248046875,0.09228515625,0.1166751758813644,0.012244921805718501,0.05969815343183642,0.003012362320942722,-0.0009763621252147494,0.0026176063175726884
1623769815.344431,0.03393100130589593,-8.627549801596928e-06,2.0,2.61,0.5253188014030457,-5.331734769242757e-07,3.658536672592163,-0.04248046875,0.09228515625,0.1166751758813644,0.012244921805718501,0.07032657665833758,0.00660299571656326,-0.0009763621252147494,0.0027908052903941384
1623769815.4044309,0.03902189138639773,-1.3828591156841867e-05,2.0,2.61,0.5253188014030457,-5.331734769242757e-07,3.658536672592163,-0.04248046875,0.09228515625,0.13182118528608922,0.01113994233233301,0.07032657665833758,0.00660299571656326,-0.0006910369958169434,0.0027908052903941384
1623769815.4044309,0.03902189138639773,-1.3828591156841867e-05,2.0,2.61,0.5253188014030457,-5.331734769242757e-07,3.658536672592163,-0.04248046875,0.09228515625,0.13182118528608922,0.01113994233233301,0.07032657665833758,0.00660299571656326,-0.0006910369958169434,0.0027908052903941384
1623769815.4044309,0.03902189138639773,-1.3828591156841867e-05,2.0,2.61,0.5253188014030457,-5.331734769242757e-07,3.658536672592163,-0.04248046875,0.09228515625,0.13182118528608922,0.01113994233233301,0.07032657665833758,0.00660299571656326,-0.0006910369958169434,0.0027908052903941384
1623769815.4044309,0.03902189138639773,-1.3828591156841867e-05,2.0,2.61,0.5253188014030457,-5.331734769242757e-07,3.658536672592163,-0.04248046875,0.09228515625,0.13182118528608922,0.01113994233233301,0.08208932895968313,0.008553655700131104,-0.0006910369958169434,0.0030510337012908733
1623769815.4044309,0.04268131257585721,-1.7562237265833793e-05,2.04,2.6,0.5449202060699463,-1.0388173654618527e-09,3.658536672592163,-0.04248046875,0.09228515625,0.13182118528608922,0.01113994233233301,0.08208932895968313,0.008553655700131104,-0.0006910369958169434,0.0030510337012908733
1623769815.4044309,0.04268131257585721,-1.7562237265833793e-05,2.04,2.6,0.5449202060699463,-1.0388173654618527e-09,3.658536672592163,-0.04248046875,0.09228515625,0.13182118528608922,0.01113994233233301,0.08908119129635061,0.009279239587401221,-0.0006910369958169434,0.002854020405263153
1623769815.4044309,0.04268131257585721,-1.7562237265833793e-05,2.04,2.6,0.5449202060699463,-1.0388173654618527e-09,3.658536672592163,-0.04248046875,0.09228515625,0.13182118528608922,0.01113994233233301,0.08908119129635061,0.009279239587401221,-0.0006910369958169434,0.002854020405263153
1623769815.4044309,0.04268131257585721,-1.7562237265833793e-05,2.04,2.6,0.5449202060699463,-1.0388173654618527e-09,3.658536672592163,-0.04248046875,0.09228515625,0.13182118528608922,0.01113994233233301,0.08908119129635061,0.009279239587401221,-0.0006910369958169434,0.002854020405263153
1623769815.4044309,0.04268131257585721,-1.7562237265833793e-05,2.04,2.6,0.5449202060699463,-1.0388173654618527e-09,-0.8536585569381714,-0.0869140625,0.02783203125,0.13182118528608922,0.01113994233233301,0.08908119129635061,0.009279239587401221,-0.0006910369958169434,0.002854020405263153
1623769815.464431,0.049097786113759305,-2.162692409746337e-05,2.04,2.6,0.5449202060699463,-1.0388173654618527e-09,-0.8536585569381714,-0.0869140625,0.02783203125,0.1740275194367032,0.010446689008891162,0.08908119129635061,0.009279239587401221,-0.0005847279878137739,0.002854020405263153
1623769815.464431,0.049097786113759305,-2.162692409746337e-05,2.04,2.6,0.5310112237930298,0.016485532745718956,-0.8536585569381714,-0.0869140625,0.02783203125,0.1740275194367032,0.010446689008891162,0.08908119129635061,0.009279239587401221,-0.0005847279878137739,0.002854020405263153
1623769815.464431,0.049097786113759305,-2.162692409746337e-05,2.04,2.6,0.5310112237930298,0.016485532745718956,-0.8536585569381714,-0.0869140625,0.02783203125,0.1740275194367032,0.010446689008891162,0.08908119129635061,0.009279239587401221,-0.0005847279878137739,0.002854020405263153
1623769815.464431,0.049097786113759305,-2.162692409746337e-05,2.04,2.6,0.5310112237930298,0.016485532745718956,-0.8536585569381714,-0.0869140625,0.02783203125,0.1740275194367032,0.010446689008891162,0.08908119129635061,0.009279239587401221,-0.0005847279878137739,0.002854020405263153
1623769815.464431,0.049097786113759305,-2.162692409746337e-05,2.04,2.6,0.5310112237930298,0.016485532745718956,-0.8536585569381714,-0.0869140625,0.02783203125,0.1740275194367032,0.010446689008891162,0.10386333942798051,0.00954977334365155,-0.0005847279878137739,0.0031347821284565328
1623769815.524431,0.057766110945353374,-2.4582659723294196e-05,2.04,2.6,0.5310112237930298,0.016485532745718956,-0.8536585569381714,-0.0869140625,0.02783203125,0.2136740453694005,0.0041132252238158026,0.10386333942798051,0.00954977334365155,-1.8950784129779608e-05,0.0031347821284565328
1623769815.524431,0.057766110945353374,-2.4582659723294196e-05,2.07,2.58,0.5310112237930298,0.016485532745718956,-0.8536585569381714,-0.0869140625,0.02783203125,0.2136740453694005,0.0041132252238158026,0.10386333942798051,0.00954977334365155,-1.8950784129779608e-05,0.0031347821284565328
1623769815.524431,0.057766110945353374,-2.4582659723294196e-05,2.07,2.58,0.5096381306648254,2.0776347309237053e-09,-0.8536585569381714,-0.0869140625,0.02783203125,0.2136740453694005,0.0041132252238158026,0.10386333942798051,0.00954977334365155,-1.8950784129779608e-05,0.0031347821284565328
1623769815.524431,0.057766110945353374,-2.4582659723294196e-05,2.07,2.58,0.5096381306648254,2.0776347309237053e-09,-0.18292683362960815,0.16259765625,0.07421875,0.2136740453694005,0.0041132252238158026,0.10386333942798051,0.00954977334365155,-1.8950784129779608e-05,0.0031347821284565328
1623769815.524431,0.057766110945353374,-2.4582659723294196e-05,2.07,2.58,0.5096381306648254,2.0776347309237053e-09,-0.18292683362960815,0.16259765625,0.07421875,0.2136740453694005,0.0041132252238158026,0.12330286932054398,0.0072110034532953445,-1.8950784129779608e-05,0.00326427503888041
1623769815.5984309,0.06836439739556104,-2.4278573375746225e-05,2.07,2.58,0.5096381306648254,2.0776347309237053e-09,-0.18292683362960815,0.16259765625,0.07421875,0.25187785592987216,0.008105402430370855,0.12330286932054398,0.0072110034532953445,0.00144070210947236,0.00326427503888041
1623769815.5984309,0.06836439739556104,-2.4278573375746225e-05,2.07,2.58,0.5096381306648254,2.0776347309237053e-09,-0.18292683362960815,0.16259765625,0.07421875,0.25187785592987216,0.008105402430370855,0.12330286932054398,0.0072110034532953445,0.00144070210947236,0.00326427503888041
1623769815.5984309,0.06836439739556104,-2.4278573375746225e-05,2.07,2.58,0.5096381306648254,2.0776347309237053e-09,-0.18292683362960815,0.16259765625,0.07421875,0.25187785592987216,0.008105402430370855,0.12330286932054398,0.0072110034532953445,0.00144070210947236,0.00326427503888041
1623769815.5984309,0.06836439739556104,-2.4278573375746225e-05,2.07,2.58,0.4842928349971771,-0.016090940684080124,-0.18292683362960815,0.16259765625,0.07421875,0.25187785592987216,0.008105402430370855,0.12330286932054398,0.0072110034532953445,0.00144070210947236,0.00326427503888041
1623769815.5984309,0.06836439739556104,-2.4278573375746225e-05,2.07,2.58,0.4842928349971771,-0.016090940684080124,-0.18292683362960815,0.16259765625,0.07421875,0.25187785592987216,0.008105402430370855,0.14778157626580032,0.007567160655145134,0.00144070210947236,0.0036346067056029236
1623769815.6444309,0.07924286938750046,-2.1828576723762203e-05,2.1,2.61,0.4842928349971771,-0.016090940684080124,-0.18292683362960815,0.16259765625,0.07421875,0.27973322605569756,0.007728693736545021,0.14778157626580032,0.007567160655145134,0.001714235003686731,0.0036346067056029236
1623769815.6444309,0.07924286938750046,-2.1828576723762203e-05,2.1,2.61,0.4842928349971771,-0.016090940684080124,-0.18292683362960815,0.16259765625,0.07421875,0.27973322605569756,0.007728693736545021,0.14778157626580032,0.007567160655145134,0.001714235003686731,0.0036346067056029236
1623769815.6444309,0.07924286938750046,-2.1828576723762203e-05,2.1,2.61,0.4842928349971771,-0.016090940684080124,-0.18292683362960815,0.16259765625,0.07421875,0.27973322605569756,0.007728693736545021,0.14778157626580032,0.007567160655145134,0.001714235003686731,0.0036346067056029236
1623769815.6444309,0.07924286938750046,-2.1828576723762203e-05,2.1,2.61,0.4842928349971771,-0.016090940684080124,-0.18292683362960815,0.16259765625,0.07421875,0.27973322605569756,0.007728693736545021,0.17167047618159326,0.007546844182543375,0.001714235003686731,0.0037268458058802687
1623769815.6444309,0.07924286938750046,-2.1828576723762203e-05,2.1,2.61,0.5057169795036316,-4.0875822171493326e-10,-0.6097561120986938,-0.27197265625,0.1201171875,0.27973322605569756,0.007728693736545021,0.17167047618159326,0.007546844182543375,0.001714235003686731,0.0037268458058802687
1623769815.704431,0.09041153196372255,-1.8605889944375763e-05,2.1,2.61,0.5057169795036316,-4.0875822171493326e-10,-0.6097561120986938,-0.27197265625,0.1201171875,0.3065388361002046,0.007236496737963385,0.17167047618159326,0.007546844182543375,0.0016827853422353295,0.0037268458058802687
1623769815.704431,0.09041153196372255,-1.8605889944375763e-05,2.1,2.61,0.5057169795036316,-4.0875822171493326e-10,-0.6097561120986938,-0.27197265625,0.1201171875,0.3065388361002046,0.007236496737963385,0.17167047618159326,0.007546844182543375,0.0016827853422353295,0.0037268458058802687
1623769815.704431,0.09041153196372255,-1.8605889944375763e-05,2.1,2.61,0.5057169795036316,-4.0875822171493326e-10,-0.6097561120986938,-0.27197265625,0.1201171875,0.3065388361002046,0.007236496737963385,0.17167047618159326,0.007546844182543375,0.0016827853422353295,0.0037268458058802687
1623769815.704431,0.09041153196372255,-1.8605889944375763e-05,2.1,2.61,0.5057169795036316,-4.0875822171493326e-10,-0.6097561120986938,-0.27197265625,0.1201171875,0.3065388361002046,0.007236496737963385,0.19774347342928622,0.007343641853500818,0.0016827853422353295,0.00383504944957157
1623769815.704431,0.09041153196372255,-1.8605889944375763e-05,2.1,2.61,0.5057169795036316,-4.0875822171493326e-10,-0.6097561120986938,-0.27197265625,0.1201171875,0.3065388361002046,0.007236496737963385,0.19774347342928622,0.007343641853500818,0.0016827853422353295,0.00383504944957157
1623769815.704431,0.09843557719147254,-1.6298730530948555e-05,2.11,2.64,0.5057169795036316,-4.0875822171493326e-10,-0.6097561120986938,-0.27197265625,0.1201171875,0.30653883600439413,0.00672269017763214,0.19774347342928622,0.007343641853500818,0.0016668448850850374,0.00383504944957157
1623769815.704431,0.09843557719147254,-1.6298730530948555e-05,2.11,2.64,0.4861164689064026,4.259155048202956e-06,-0.6097561120986938,-0.27197265625,0.1201171875,0.30653883600439413,0.00672269017763214,0.19774347342928622,0.007343641853500818,0.0016668448850850374,0.00383504944957157
1623769815.704431,0.09843557719147254,-1.6298730530948555e-05,2.11,2.64,0.4861164689064026,4.259155048202956e-06,-0.6097561120986938,-0.27197265625,0.1201171875,0.30653883600439413,0.00672269017763214,0.19774347342928622,0.007343641853500818,0.0016668448850850374,0.00383504944957157
1623769815.704431,0.09843557719147254,-1.6298730530948555e-05,2.11,2.64,0.4861164689064026,4.259155048202956e-06,-0.6097561120986938,-0.27197265625,0.1201171875,0.30653883600439413,0.00672269017763214,0.21305953214974133,0.007078763972724017,0.0016668448850850374,0.003566087406774612
1623769815.704431,0.09843557719147254,-1.6298730530948555e-05,2.11,2.64,0.4861164689064026,4.259155048202956e-06,2.5,-0.53125,-0.28271484375,0.30653883600439413,0.00672269017763214,0.21305953214974133,0.007078763972724017,0.0016668448850850374,0.003566087406774612
1623769815.764431,0.10708256454890751,-1.3610672532958496e-05,2.11,2.64,0.4861164689064026,4.259155048202956e-06,2.5,-0.53125,-0.28271484375,0.32981659461379753,0.006317509503176868,0.21305953214974133,0.007078763972724017,0.0020090740181853534,0.003566087406774612
1623769815.764431,0.10708256454890751,-1.3610672532958496e-05,2.11,2.64,0.5017979741096497,-4.258933586243074e-06,2.5,-0.53125,-0.28271484375,0.32981659461379753,0.006317509503176868,0.21305953214974133,0.007078763972724017,0.0020090740181853534,0.003566087406774612
1623769815.764431,0.10708256454890751,-1.3610672532958496e-05,2.11,2.64,0.5017979741096497,-4.258933586243074e-06,2.5,-0.53125,-0.28271484375,0.32981659461379753,0.006317509503176868,0.21305953214974133,0.007078763972724017,0.0020090740181853534,0.003566087406774612
1623769815.764431,0.10708256454890751,-1.3610672532958496e-05,2.11,2.64,0.5017979741096497,-4.258933586243074e-06,2.5,-0.53125,-0.28271484375,0.32981659461379753,0.006317509503176868,0.2354239223632529,0.006766491845364879,0.0020090740181853534,0.003675761424294903
1623769815.764431,0.10708256454890751,-1.3610672532958496e-05,2.11,2.64,0.5017979741096497,-4.258933586243074e-06,2.5,-0.53125,-0.28271484375,0.32981659461379753,0.006317509503176868,0.2354239223632529,0.006766491845364879,0.0020090740181853534,0.003675761424294903
1623769815.824431,0.11587493880984667,-1.1212253794923535e-05,2.17,2.58,0.5017979741096497,-4.258933586243074e-06,2.5,-0.53125,-0.28271484375,0.350132229513918,0.0035910349306877347,0.2354239223632529,0.006766491845364879,0.0018833326444967749,0.003675761424294903
1623769815.824431,0.11587493880984667,-1.1212253794923535e-05,2.17,2.58,0.5017979741096497,-4.258933586243074e-06,2.5,-0.53125,-0.28271484375,0.350132229513918,0.0035910349306877347,0.2354239223632529,0.006766491845364879,0.0018833326444967749,0.003675761424294903
1623769815.824431,0.11587493880984667,-1.1212253794923535e-05,2.17,2.58,0.5000244975090027,-0.01649191603064537,0.12195122241973877,-0.23046875,-0.09228515625,0.350132229513918,0.0035910349306877347,0.258570571155961,0.00536855293174414,0.0018833326444967749,0.003607306227833542
1623769815.824431,0.11587493880984667,-1.1212253794923535e-05,2.17,2.58,0.5000244975090027,-0.01649191603064537,0.12195122241973877,-0.23046875,-0.09228515625,0.350132229513918,0.0035910349306877347,0.258570571155961,0.00536855293174414,0.0018833326444967749,0.003607306227833542
1623769815.824431,0.11587493880984667,-1.1212253794923535e-05,2.17,2.58,0.5000244975090027,-0.01649191603064537,0.12195122241973877,-0.23046875,-0.09228515625,0.350132229513918,0.0035910349306877347,0.258570571155961,0.00536855293174414,0.0018833326444967749,0.003607306227833542
1623769815.890431,0.12452763254492002,-9.062368572943659e-06,2.17,2.58,0.5000244975090027,-0.01649191603064537,0.12195122241973877,-0.23046875,-0.09228515625,0.368857561533598,0.0016621722666437188,0.258570571155961,0.00536855293174414,0.0018008587162550726,0.003607306227833542
1623769815.890431,0.12452763254492002,-9.062368572943659e-06,2.17,2.58,0.5000244975090027,-0.01649191603064537,0.12195122241973877,-0.23046875,-0.09228515625,0.368857561533598,0.0016621722666437188,0.258570571155961,0.00536855293174414,0.0018008587162550726,0.003607306227833542
1623769815.890431,0.12452763254492002,-9.062368572943659e-06,2.17,2.58,0.4996492266654968,0.016487659886479378,0.12195122241973877,-0.23046875,-0.09228515625,0.368857561533598,0.0016621722666437188,0.28269197058907364,0.003515131057634915,0.0018008587162550726,0.003435391912740654
1623769815.890431,0.12452763254492002,-9.062368572943659e-06,2.17,2.58,0.4996492266654968,0.016487659886479378,0.12195122241973877,-0.23046875,-0.09228515625,0.368857561533598,0.0016621722666437188,0.28269197058907364,0.003515131057634915,0.0018008587162550726,0.003435391912740654
1623769815.890431,0.12452763254492002,-9.062368572943659e-06,2.17,2.58,0.4996492266654968,0.016487659886479378,0.12195122241973877,-0.23046875,-0.09228515625,0.368857561533598,0.0016621722666437188,0.28269197058907364,0.003515131057634915,0.0018008587162550726,0.003435391912740654
1623769815.9444308,0.13257387447746688,-7.655916434662929e-06,2.2,2.51,0.4996492266654968,0.016487659886479378,0.12195122241973877,-0.23046875,-0.09228515625,0.38419330024977366,0.0015667131856114936,0.28269197058907364,0.003515131057634915,0.0017532225529453783,0.003435391912740654
1623769815.9444308,0.13257387447746688,-7.655916434662929e-06,2.2,2.51,0.4996492266654968,0.016487659886479378,0.12195122241973877,-0.23046875,-0.09228515625,0.38419330024977366,0.0015667131856114936,0.28269197058907364,0.003515131057634915,0.0017532225529453783,0.003435391912740654
1623769815.9444308,0.13257387447746688,-7.655916434662929e-06,2.2,2.51,0.4996492266654968,0.016487659886479378,0.12195122241973877,-0.23046875,-0.09228515625,0.38419330024977366,0.0015667131856114936,0.304747299009374,0.002721525330728956,0.0017532225529453783,0.0031348606027112166
1623769815.9444308,0.13257387447746688,-7.655916434662929e-06,2.2,2.51,0.4996492266654968,0.016487659886479378,0.12195122241973877,-0.23046875,-0.09228515625,0.38419330024977366,0.0015667131856114936,0.304747299009374,0.002721525330728956,0.0017532225529453783,0.0031348606027112166
1623769815.9444308,0.13257387447746688,-7.655916434662929e-06,2.2,2.51,0.5092628002166748,0.03298383578658104,2.378048896789551,0.0888671875,0.1904296875,0.38419330024977366,0.0015667131856114936,0.304747299009374,0.002721525330728956,0.0017532225529453783,0.0031348606027112166
1623769816.004431,0.13996450468119992,-7.197205963360084e-06,2.2,2.51,0.5092628002166748,0.03298383578658104,2.378048896789551,0.0888671875,0.1904296875,0.39848687070364974,0.0014665089935525233,0.304747299009374,0.002721525330728956,0.0017338307475442158,0.0031348606027112166
1623769816.004431,0.13996450468119992,-7.197205963360084e-06,2.2,2.51,0.5092628002166748,0.03298383578658104,2.378048896789551,0.0888671875,0.1904296875,0.39848687070364974,0.0014665089935525233,0.304747299009374,0.002721525330728956,0.0017338307475442158,0.0031348606027112166
1623769816.004431,0.13996450468119992,-7.197205963360084e-06,2.2,2.51,0.5092628002166748,0.03298383578658104,2.378048896789551,0.0888671875,0.1904296875,0.39848687070364974,0.0014665089935525233,0.32680190414427696,0.0022468674412510453,0.0017338307475442158,0.0028598616102176407
1623769816.004431,0.13996450468119992,-7.197205963360084e-06,2.2,2.51,0.5092628002166748,0.03298383578658104,2.378048896789551,0.0888671875,0.1904296875,0.39848687070364974,0.0014665089935525233,0.32680190414427696,0.0022468674412510453,0.0017338307475442158,0.0028598616102176407
1623769816.004431,0.13996450468119992,-7.197205963360084e-06,2.2,2.51,0.5125240683555603,-0.01690421625971794,2.378048896789551,0.0888671875,0.1904296875,0.39848687070364974,0.0014665089935525233,0.32680190414427696,0.0022468674412510453,0.0017338307475442158,0.0028598616102176407
1623769816.004431,0.14526856114800382,-6.706679200296827e-06,2.24,2.42,0.5125240683555603,-0.01690421625971794,2.378048896789551,0.0888671875,0.1904296875,0.39848687069704203,0.007108631089751773,0.32680190414427696,0.0022468674412510453,0.001904675138891169,0.0028598616102176407
1623769816.004431,0.14526856114800382,-6.706679200296827e-06,2.24,2.42,0.5125240683555603,-0.01690421625971794,2.378048896789551,0.0888671875,0.1904296875,0.39848687069704203,0.007108631089751773,0.33692120149156246,0.003929255307366769,0.001904675138891169,0.002717696086451692
1623769816.004431,0.14526856114800382,-6.706679200296827e-06,2.24,2.42,0.5125240683555603,-0.01690421625971794,2.378048896789551,0.0888671875,0.1904296875,0.39848687069704203,0.007108631089751773,0.33692120149156246,0.003929255307366769,0.001904675138891169,0.002717696086451692
1623769816.004431,0.14526856114800382,-6.706679200296827e-06,2.24,2.42,0.5125240683555603,-0.01690421625971794,0.4878048896789551,0.1650390625,-0.43505859375,0.39848687069704203,0.007108631089751773,0.33692120149156246,0.003929255307366769,0.001904675138891169,0.002717696086451692
1623769816.004431,0.14526856114800382,-6.706679200296827e-06,2.24,2.42,0.5125240683555603,-0.01690421625971794,0.4878048896789551,0.1650390625,-0.43505859375,0.39848687069704203,0.007108631089751773,0.33692120149156246,0.003929255307366769,0.001904675138891169,0.002717696086451692
1623769816.0984309,0.15046580320405148,-5.782330415483833e-06,2.24,2.42,0.4978756904602051,8.517271453456488e-06,0.4878048896789551,0.1650390625,-0.43505859375,0.41348182254745425,0.004276497676698127,0.33692120149156246,0.003929255307366769,0.0024077627139852996,0.002717696086451692
1623769816.0984309,0.15046580320405148,-5.782330415483833e-06,2.24,2.42,0.4978756904602051,8.517271453456488e-06,0.4878048896789551,0.1650390625,-0.43505859375,0.41348182254745425,0.004276497676698127,0.36050421641294544,0.004085351165259035,0.0024077627139852996,0.0029547979331119097
1623769816.0984309,0.15046580320405148,-5.782330415483833e-06,2.24,2.42,0.4978756904602051,8.517271453456488e-06,0.4878048896789551,0.1650390625,-0.43505859375,0.41348182254745425,0.004276497676698127,0.36050421641294544,0.004085351165259035,0.0024077627139852996,0.0029547979331119097
1623769816.0984309,0.15046580320405148,-5.782330415483833e-06,2.24,2.42,0.4978756904602051,8.517271453456488e-06,0.4878048896789551,0.1650390625,-0.43505859375,0.41348182254745425,0.004276497676698127,0.36050421641294544,0.004085351165259035,0.0024077627139852996,0.0029547979331119097
1623769816.0984309,0.15046580320405148,-5.782330415483833e-06,2.24,2.42,0.4978756904602051,8.517271453456488e-06,0.4878048896789551,0.1650390625,-0.43505859375,0.41348182254745425,0.004276497676698127,0.36050421641294544,0.004085351165259035,0.0024077627139852996,0.0029547979331119097
1623769816.124431,0.15504710524325,-4.3202243161757325e-06,2.28,2.38,0.4978756904602051,8.517271453456488e-06,0.4878048896789551,0.1650390625,-0.43505859375,0.4219987227862435,0.0041762249950340075,0.36050421641294544,0.004085351165259035,0.002771906214526902,0.0029547979331119097
1623769816.124431,0.15504710524325,-4.3202243161757325e-06,2.28,2.38,0.4978768229484558,-5.6185713859235875e-09,0.4878048896789551,0.1650390625,-0.43505859375,0.4219987227862435,0.0041762249950340075,0.3731590603728417,0.004112483028208973,0.002771906214526902,0.002975738079781383
1623769816.124431,0.15504710524325,-4.3202243161757325e-06,2.28,2.38,0.4978768229484558,-5.6185713859235875e-09,0.4878048896789551,0.1650390625,-0.43505859375,0.4219987227862435,0.0041762249950340075,0.3731590603728417,0.004112483028208973,0.002771906214526902,0.002975738079781383
1623769816.124431,0.15504710524325,-4.3202243161757325e-06,2.28,2.38,0.4978768229484558,-5.6185713859235875e-09,0.792682945728302,-0.3427734375,-0.13037109375,0.4219987227862435,0.0041762249950340075,0.3731590603728417,0.004112483028208973,0.002771906214526902,0.002975738079781383
1623769816.124431,0.15504710524325,-4.3202243161757325e-06,2.28,2.38,0.4978768229484558,-5.6185713859235875e-09,0.792682945728302,-0.3427734375,-0.13037109375,0.4219987227862435,0.0041762249950340075,0.3731590603728417,0.004112483028208973,0.002771906214526902,0.002975738079781383
1623769816.202431,0.15904524989404364,-2.6288180341471022e-06,2.28,2.38,0.4978768229484558,-5.6185713859235875e-09,0.792682945728302,-0.3427734375,-0.13037109375,0.43250398648841004,0.003146570563357717,0.3731590603728417,0.004112483028208973,0.0026528719914610866,0.002975738079781383
1623769816.202431,0.15904524989404364,-2.6288180341471022e-06,2.28,2.38,0.4978768229484558,-5.6185713859235875e-09,0.792682945728302,-0.3427734375,-0.13037109375,0.43250398648841004,0.003146570563357717,0.3731590603728417,0.004112483028208973,0.0026528719914610866,0.002975738079781383
1623769816.202431,0.15904524989404364,-2.6288180341471022e-06,2.28,2.38,0.5057169198989868,8.519299626641441e-06,0.792682945728302,-0.3427734375,-0.13037109375,0.43250398648841004,0.003146570563357717,0.3731590603728417,0.004112483028208973,0.0026528719914610866,0.002975738079781383
1623769816.202431,0.15904524989404364,-2.6288180341471022e-06,2.28,2.38,0.5057169198989868,8.519299626641441e-06,0.792682945728302,-0.3427734375,-0.13037109375,0.43250398648841004,0.003146570563357717,0.3731590603728417,0.004112483028208973,0.0026528719914610866,0.002975738079781383
1623769816.202431,0.15904524989404364,-2.6288180341471022e-06,2.28,2.38,0.5057169198989868,8.519299626641441e-06,0.792682945728302,-0.3427734375,-0.13037109375,0.43250398648841004,0.003146570563357717,0.3731590603728417,0.004112483028208973,0.0026528719914610866,0.002975738079781383
1623769816.244431,0.16242378955889725,-1.468539428984761e-06,2.31,2.32,0.5057169198989868,8.519299626641441e-06,0.792682945728302,-0.3427734375,-0.13037109375,0.4400913198467719,0.0030020648610478884,0.39289223497562953,0.003658882844758692,0.0025153578382039565,0.003100305610044507
1623769816.244431,0.16242378955889725,-1.468539428984761e-06,2.31,2.32,0.5057169198989868,8.519299626641441e-06,0.792682945728302,-0.3427734375,-0.13037109375,0.4400913198467719,0.0030020648610478884,0.39289223497562953,0.003658882844758692,0.0025153578382039565,0.003100305610044507
1623769816.244431,0.16242378955889725,-1.468539428984761e-06,2.31,2.32,0.5057169198989868,8.519299626641441e-06,0.792682945728302,-0.3427734375,-0.13037109375,0.4400913198467719,0.0030020648610478884,0.39289223497562953,0.003658882844758692,0.0025153578382039565,0.003100305610044507
1623769816.244431,0.16242378955889725,-1.468539428984761e-06,2.31,2.32,0.49787771701812744,8.512470230925828e-06,0.792682945728302,-0.3427734375,-0.13037109375,0.4400913198467719,0.0030020648610478884,0.39289223497562953,0.003658882844758692,0.0025153578382039565,0.003100305610044507
1623769816.244431,0.16242378955889725,-1.468539428984761e-06,2.31,2.32,0.49787771701812744,8.512470230925828e-06,-2.9268293380737305,-0.1767578125,-0.0888671875,0.44724294841896706,0.002820439552987824,0.4060256018025909,0.0034077218225730343,0.0026597856317549873,0.002991227451172101
1623769816.304431,0.16510035264407857,-4.838745813579597e-08,2.31,2.32,0.49787771701812744,8.512470230925828e-06,-2.9268293380737305,-0.1767578125,-0.0888671875,0.44724294841896706,0.002820439552987824,0.4060256018025909,0.0034077218225730343,0.0026597856317549873,0.002991227451172101
1623769816.304431,0.16510035264407857,-4.838745813579597e-08,2.31,2.32,0.49787771701812744,8.512470230925828e-06,-2.9268293380737305,-0.1767578125,-0.0888671875,0.44724294841896706,0.002820439552987824,0.4208855221050539,0.003199763337129386,0.0026597856317549873,0.002996921905975144
1623769816.304431,0.16510035264407857,-4.838745813579597e-08,2.31,2.32,0.49787771701812744,8.512470230925828e-06,-2.9268293380737305,-0.1767578125,-0.0888671875,0.44724294841896706,0.002820439552987824,0.4208855221050539,0.003199763337129386,0.0026597856317549873,0.002996921905975144
1623769816.304431,0.16510035264407857,-4.838745813579597e-08,2.31,2.32,0.49787771701812744,8.512470230925828e-06,-2.9268293380737305,-0.1767578125,-0.0888671875,0.44724294841896706,0.002820439552987824,0.4208855221050539,0.003199763337129386,0.0026597856317549873,0.002996921905975144
1623769816.304431,0.16510035264407857,-4.838745813579597e-08,2.31,2.32,0.49787768721580505,8.519299626641441e-06,-2.9268293380737305,-0.1767578125,-0.0888671875,0.44724294841896706,0.002820439552987824,0.4208855221050539,0.003199763337129386,0.0026597856317549873,0.002996921905975144
1623769816.306431,0.16701860765370535,1.1663448877052484e-06,2.35,2.31,0.49787768721580505,8.519299626641441e-06,-2.9268293380737305,-0.1767578125,-0.0888671875,0.4473273636694379,0.0073021734460663405,0.4208855221050539,0.003199763337129386,0.0028125707550242752,0.002996921905975144
1623769816.306431,0.16701860765370535,1.1663448877052484e-06,2.35,2.31,0.49787768721580505,8.519299626641441e-06,-2.9268293380737305,-0.1767578125,-0.0888671875,0.4473273636694379,0.0073021734460663405,0.4208855221050539,0.003199763337129386,0.0028125707550242752,0.002996921905975144
1623769816.306431,0.16701860765370535,1.1663448877052484e-06,2.35,2.31,0.49787768721580505,8.519299626641441e-06,1.0365853309631348,-0.193359375,-0.0244140625,0.4473273636694379,0.0073021734460663405,0.4208855221050539,0.003199763337129386,0.0028125707550242752,0.002996921905975144
1623769816.306431,0.16701860765370535,1.1663448877052484e-06,2.35,2.31,0.49787768721580505,8.519299626641441e-06,1.0365853309631348,-0.193359375,-0.0244140625,0.4473273636694379,0.0073021734460663405,0.4208855221050539,0.003199763337129386,0.0028125707550242752,0.002996921905975144
1623769816.306431,0.16701860765370535,1.1663448877052484e-06,2.35,2.31,0.49787768721580505,8.519299626641441e-06,1.0365853309631348,-0.193359375,-0.0244140625,0.45469136073039446,0.01066865294585229,0.4248805652731246,0.004630224086837201,0.0030781247904401745,0.002991286001953768
1623769816.390431,0.16829620544393517,2.733335363846971e-06,2.35,2.31,0.5060927271842957,-0.032975319772958755,1.0365853309631348,-0.193359375,-0.0244140625,0.45469136073039446,0.01066865294585229,0.4248805652731246,0.004630224086837201,0.0030781247904401745,0.002991286001953768
1623769816.390431,0.16829620544393517,2.733335363846971e-06,2.35,2.31,0.5060927271842957,-0.032975319772958755,1.0365853309631348,-0.193359375,-0.0244140625,0.45469136073039446,0.01066865294585229,0.4248805652731246,0.004630224086837201,0.0030781247904401745,0.002991286001953768
1623769816.390431,0.16829620544393517,2.733335363846971e-06,2.35,2.31,0.5060927271842957,-0.032975319772958755,1.0365853309631348,-0.193359375,-0.0244140625,0.45469136073039446,0.01066865294585229,0.4248805652731246,0.004630224086837201,0.0030781247904401745,0.002991286001953768
1623769816.390431,0.16829620544393517,2.733335363846971e-06,2.35,2.31,0.5060927271842957,-0.032975319772958755,1.0365853309631348,-0.193359375,-0.0244140625,0.45469136073039446,0.01066865294585229,0.4248805652731246,0.004630224086837201,0.0030781247904401745,0.002991286001953768
1623769816.390431,0.16829620544393517,2.733335363846971e-06,2.35,2.31,0.5035693049430847,0.01649191975593567,1.0365853309631348,-0.193359375,-0.0244140625,0.4594219787958414,0.010257905130991172,0.44134906752403513,0.007544062249520036,0.0022420568457134334,0.0033938203431424304
1623769816.4244308,0.16927817613367388,3.745177470800937e-06,2.4,2.34,0.5035693049430847,0.01649191975593567,1.0365853309631348,-0.193359375,-0.0244140625,0.4594219787958414,0.010257905130991172,0.44134906752403513,0.007544062249520036,0.0022420568457134334,0.0033938203431424304
1623769816.4244308,0.16927817613367388,3.745177470800937e-06,2.4,2.34,0.5035693049430847,0.01649191975593567,1.0365853309631348,-0.193359375,-0.0244140625,0.4594219787958414,0.010257905130991172,0.44134906752403513,0.007544062249520036,0.0022420568457134334,0.0033938203431424304
1623769816.4244308,0.16927817613367388,3.745177470800937e-06,2.4,2.34,0.5035693049430847,0.01649191975593567,0.7317073345184326,-0.19775390625,0.2890625,0.4594219787958414,0.010257905130991172,0.44134906752403513,0.007544062249520036,0.0022420568457134334,0.0033938203431424304
1623769816.4244308,0.16927817613367388,3.745177470800937e-06,2.4,2.34,0.5035693049430847,0.01649191975593567,0.7317073345184326,-0.19775390625,0.2890625,0.4594219787958414,0.010257905130991172,0.44894339192443133,0.008516243356601352,0.0022420568457134334,0.003165583288817065
1623769816.4244308,0.16927817613367388,3.745177470800937e-06,2.4,2.34,0.5035693049430847,0.01649191975593567,0.7317073345184326,-0.19775390625,0.2890625,0.4594219787958414,0.010257905130991172,0.44894339192443133,0.008516243356601352,0.0022420568457134334,0.003165583288817065
1623769816.494431,0.1696143170045193,4.155266874018827e-06,2.4,2.34,0.5035693049430847,0.01649191975593567,0.7317073345184326,-0.19775390625,0.2890625,0.4648147994898543,0.008083830482654236,0.44894339192443133,0.008516243356601352,0.002573076594665438,0.003165583288817065
1623769816.494431,0.1696143170045193,4.155266874018827e-06,2.4,2.34,0.5035693049430847,0.01649191975593567,0.7317073345184326,-0.19775390625,0.2890625,0.4648147994898543,0.008083830482654236,0.44894339192443133,0.008516243356601352,0.002573076594665438,0.003165583288817065
1623769816.494431,0.1696143170045193,4.155266874018827e-06,2.4,2.34,0.5096385478973389,8.512470230925828e-06,0.7317073345184326,-0.19775390625,0.2890625,0.4648147994898543,0.008083830482654236,0.44894339192443133,0.008516243356601352,0.002573076594665438,0.003165583288817065
1623769816.494431,0.1696143170045193,4.155266874018827e-06,2.4,2.34,0.5096385478973389,8.512470230925828e-06,0.7317073345184326,-0.19775390625,0.2890625,0.4648147994898543,0.008083830482654236,0.4614340496210818,0.008303045918481095,0.002573076594665438,0.0033330553934794644
1623769816.494431,0.1696143170045193,4.155266874018827e-06,2.4,2.34,0.5096385478973389,8.512470230925828e-06,0.7317073345184326,-0.19775390625,0.2890625,0.46920706585609545,0.007671481514724084,0.4614340496210818,0.008303045918481095,0.0027788594728201236,0.0033330553934794644
1623769816.544431,0.16955502155482788,4.620050756256142e-06,2.47,2.37,0.5096385478973389,8.512470230925828e-06,0.7317073345184326,-0.19775390625,0.2890625,0.46920706585609545,0.007671481514724084,0.4614340496210818,0.008303045918481095,0.0027788594728201236,0.0033330553934794644
1623769816.544431,0.16955502155482788,4.620050756256142e-06,2.47,2.37,0.5096385478973389,8.512470230925828e-06,0.7317073345184326,-0.19775390625,0.2890625,0.46920706585609545,0.007671481514724084,0.4614340496210818,0.008303045918481095,0.0027788594728201236,0.0033330553934794644
1623769816.544431,0.16955502155482788,4.620050756256142e-06,2.47,2.37,0.5096385478973389,8.512470230925828e-06,0.7317073345184326,-0.19775390625,0.2890625,0.46920706585609545,0.007671481514724084,0.4614340496210818,0.008303045918481095,0.0027788594728201236,0.0033330553934794644
1623769816.544431,0.16955502155482788,4.620050756256142e-06,2.47,2.37,0.4898497462272644,8.313632861245424e-06,1.1585365533828735,-0.2119140625,0.18212890625,0.46920706585609545,0.007671481514724084,0.4614340496210818,0.008303045918481095,0.0027788594728201236,0.0033330553934794644
1623769816.544431,0.16955502155482788,4.620050756256142e-06,2.47,2.37,0.4898497462272644,8.313632861245424e-06,1.1585365533828735,-0.2119140625,0.18212890625,0.46920706585609545,0.007671481514724084,0.46980165725256434,0.008054832400767953,0.0027788594728201236,0.0033556719043347093
1623769816.544431,0.16951206721466353,4.953338571537288e-06,2.47,2.37,0.4898497462272644,8.313632861245424e-06,1.1585365533828735,-0.2119140625,0.18212890625,0.46920706585609545,0.007671481514724084,0.46980165725256434,0.008054832400767953,0.0027788594728201236,0.0033556719043347093
1623769816.544431,0.16951206721466353,4.953338571537288e-06,2.47,2.37,0.4898497462272644,8.313632861245424e-06,1.1585365533828735,-0.2119140625,0.18212890625,0.46920706585609545,0.007671481514724084,0.46980165725256434,0.008054832400767953,0.0027788594728201236,0.0033556719043347093
1623769816.544431,0.16951206721466353,4.953338571537288e-06,2.47,2.37,0.4898497462272644,8.313632861245424e-06,1.1585365533828735,-0.2119140625,0.18212890625,0.46920706585609545,0.007671481514724084,0.46980165725256434,0.008054832400767953,0.0027788594728201236,0.0033556719043347093
1623769816.544431,0.16951206721466353,4.953338571537288e-06,2.47,2.37,0.4898497462272644,8.313632861245424e-06,1.1585365533828735,-0.2119140625,0.18212890625,0.46920706585609545,0.007671481514724084,0.4697197261512839,0.007946822519268005,0.0027788594728201236,0.0031893561151598183
1623769816.544431,0.16951206721466353,4.953338571537288e-06,2.47,2.37,0.5044891238212585,-0.016921665519475937,1.1585365533828735,-0.2119140625,0.18212890625,0.46920706585609545,0.007671481514724084,0.4697197261512839,0.007946822519268005,0.0027788594728201236,0.0031893561151598183
1623769816.604431,0.16899889974845447,5.674111368816154e-06,2.52,2.39,0.5044891238212585,-0.016921665519475937,1.1585365533828735,-0.2119140625,0.18212890625,0.47321759464025653,0.010979071515337405,0.4697197261512839,0.007946822519268005,0.0031982552353609114,0.0031893561151598183
1623769816.604431,0.16899889974845447,5.674111368816154e-06,2.52,2.39,0.5044891238212585,-0.016921665519475937,1.1585365533828735,-0.2119140625,0.18212890625,0.47321759464025653,0.010979071515337405,0.4697197261512839,0.007946822519268005,0.0031982552353609114,0.0031893561151598183
1623769816.604431,0.16899889974845447,5.674111368816154e-06,2.52,2.39,0.5044891238212585,-0.016921665519475937,1.1585365533828735,-0.2119140625,0.18212890625,0.47321759464025653,0.010979071515337405,0.4697197261512839,0.007946822519268005,0.0031982552353609114,0.0031893561151598183
1623769816.604431,0.16899889974845447,5.674111368816154e-06,2.52,2.39,0.5044891238212585,-0.016921665519475937,-0.3658536672592163,-0.31201171875,-0.19091796875,0.47321759464025653,0.010979071515337405,0.4789148874439611,0.009151718498733374,0.0031982552353609114,0.0035273367371632123
1623769816.604431,0.16899889974845447,5.674111368816154e-06,2.52,2.39,0.5044891238212585,-0.016921665519475937,-0.3658536672592163,-0.31201171875,-0.19091796875,0.47321759464025653,0.010979071515337405,0.4789148874439611,0.009151718498733374,0.0031982552353609114,0.0035273367371632123
1623769816.6644309,0.1679862749912995,6.777551835678914e-06,2.52,2.39,0.5092617869377136,0.03298383206129074,-0.3658536672592163,-0.31201171875,-0.19091796875,0.4764580435164518,0.010287121169601775,0.4789148874439611,0.009151718498733374,0.0031547099207410306,0.0035273367371632123
1623769816.6644309,0.1679862749912995,6.777551835678914e-06,2.52,2.39,0.5092617869377136,0.03298383206129074,-0.3658536672592163,-0.31201171875,-0.19091796875,0.4764580435164518,0.010287121169601775,0.4789148874439611,0.009151718498733374,0.0031547099207410306,0.0035273367371632123
1623769816.6644309,0.1679862749912995,6.777551835678914e-06,2.52,2.39,0.5092617869377136,0.03298383206129074,-0.3658536672592163,-0.31201171875,-0.19091796875,0.4764580435164518,0.010287121169601775,0.4789148874439611,0.009151718498733374,0.0031547099207410306,0.0035273367371632123
1623769816.6644309,0.1679862749912995,6.777551835678914e-06,2.52,2.39,0.5092617869377136,0.03298383206129074,-0.3658536672592163,-0.31201171875,-0.19091796875,0.4764580435164518,0.010287121169601775,0.48713171011779766,0.009539906570943522,0.0031547099207410306,0.0037216918447154812
1623769816.6644309,0.1679862749912995,6.777551835678914e-06,2.52,2.39,0.5092617869377136,0.03298383206129074,-0.3658536672592163,-0.31201171875,-0.19091796875,0.4764580435164518,0.010287121169601775,0.48713171011779766,0.009539906570943522,0.0031547099207410306,0.0037216918447154812
1623769816.724431,0.16651680558564713,7.48087060015573e-06,2.58,2.42,0.5092617869377136,0.03298383206129074,-0.3658536672592163,-0.31201171875,-0.19091796875,0.479500290258135,0.010911129487951997,0.48713171011779766,0.009539906570943522,0.0033533492256305917,0.0037216918447154812
1623769816.724431,0.16651680558564713,7.48087060015573e-06,2.58,2.42,0.4921834468841553,-0.016500430181622505,-0.3658536672592163,-0.31201171875,-0.19091796875,0.479500290258135,0.010911129487951997,0.48713171011779766,0.009539906570943522,0.0033533492256305917,0.0037216918447154812
1623769816.724431,0.16651680558564713,7.48087060015573e-06,2.58,2.42,0.4921834468841553,-0.016500430181622505,-0.3658536672592163,-0.31201171875,-0.19091796875,0.479500290258135,0.010911129487951997,0.49441919651592575,0.010105199013091919,0.0033533492256305917,0.003922994321354385
1623769816.724431,0.16651680558564713,7.48087060015573e-06,2.58,2.42,0.4921834468841553,-0.016500430181622505,1.0365853309631348,0.04931640625,0.5419921875,0.479500290258135,0.010911129487951997,0.49441919651592575,0.010105199013091919,0.0033533492256305917,0.003922994321354385
1623769816.724431,0.16651680558564713,7.48087060015573e-06,2.58,2.42,0.4921834468841553,-0.016500430181622505,1.0365853309631348,0.04931640625,0.5419921875,0.4821369055024611,0.010215073050819656,0.49441919651592575,0.010105199013091919,0.0032205287080492597,0.003922994321354385
1623769816.784431,0.1646276049170315,7.966903993178807e-06,2.58,2.42,0.4921834468841553,-0.016500430181622505,1.0365853309631348,0.04931640625,0.5419921875,0.4821369055024611,0.010215073050819656,0.49441919651592575,0.010105199013091919,0.0032205287080492597,0.003922994321354385
1623769816.784431,0.1646276049170315,7.966903993178807e-06,2.58,2.42,0.5187439322471619,-0.03379098325967789,1.0365853309631348,0.04931640625,0.5419921875,0.4821369055024611,0.010215073050819656,0.49441919651592575,0.010105199013091919,0.0032205287080492597,0.003922994321354385
1623769816.784431,0.1646276049170315,7.966903993178807e-06,2.58,2.42,0.5187439322471619,-0.03379098325967789,1.0365853309631348,0.04931640625,0.5419921875,0.4821369055024611,0.010215073050819656,0.49441919651592575,0.010105199013091919,0.0032205287080492597,0.003922994321354385
1623769816.784431,0.1646276049170315,7.966903993178807e-06,2.58,2.42,0.5187439322471619,-0.03379098325967789,1.0365853309631348,0.04931640625,0.5419921875,0.4821369055024611,0.010215073050819656,0.5008169650620163,0.01011889192500149,0.0032205287080492597,0.003978703955658378
1623769816.784431,0.1646276049170315,7.966903993178807e-06,2.63,2.43,0.5187439322471619,-0.03379098325967789,1.0365853309631348,0.04931640625,0.5419921875,0.4821369055024611,0.010215073050819656,0.5008169650620163,0.01011889192500149,0.0032205287080492597,0.003978703955658378
1623769816.844431,0.16236500458771658,8.237381555205326e-06,2.63,2.43,0.5187439322471619,-0.03379098325967789,1.0365853309631348,0.04931640625,0.5419921875,0.4844314449875176,0.009313348730197887,0.5008169650620163,0.01011889192500149,0.002583088089167586,0.003978703955658378
1623769816.844431,0.16236500458771658,8.237381555205326e-06,2.63,2.43,0.5187439322471619,-0.03379098325967789,-0.7317073345184326,0.12060546875,-0.21142578125,0.4844314449875176,0.009313348730197887,0.5063845251098827,0.009744259274312784,0.002583088089167586,0.0037195576824703195
1623769816.844431,0.16236500458771658,8.237381555205326e-06,2.63,2.43,0.5187439322471619,-0.03379098325967789,-0.7317073345184326,0.12060546875,-0.21142578125,0.4844314449875176,0.009313348730197887,0.5063845251098827,0.009744259274312784,0.002583088089167586,0.0037195576824703195
1623769816.844431,0.16236500458771658,8.237381555205326e-06,2.63,2.43,0.4957291781902313,0.016483407467603683,-0.7317073345184326,0.12060546875,-0.21142578125,0.4844314449875176,0.009313348730197887,0.5063845251098827,0.009744259274312784,0.002583088089167586,0.0037195576824703195
1623769816.844431,0.16236500458771658,8.237381555205326e-06,2.63,2.43,0.4957291781902313,0.016483407467603683,-0.7317073345184326,0.12060546875,-0.21142578125,0.4844314449875176,0.009313348730197887,0.5063845251098827,0.009744259274312784,0.002583088089167586,0.0037195576824703195
1623769816.9044309,0.1597683959450431,7.873562963537838e-06,2.63,2.43,0.4957291781902313,0.016483407467603683,-0.7317073345184326,0.12060546875,-0.21142578125,0.48630916440872846,0.00912363005535776,0.5063845251098827,0.009744259274312784,0.0026750936472424492,0.0037195576824703195
1623769816.9044309,0.1597683959450431,7.873562963537838e-06,2.63,2.43,0.4957291781902313,0.016483407467603683,-0.7317073345184326,0.12060546875,-0.21142578125,0.48630916440872846,0.00912363005535776,0.5063845251098827,0.009744259274312784,0.0026750936472424492,0.0037195576824703195
1623769816.9044309,0.1597683959450431,7.873562963537838e-06,2.63,2.43,0.4957291781902313,0.016483407467603683,-0.7317073345184326,0.12060546875,-0.21142578125,0.48630916440872846,0.00912363005535776,0.5111715930240184,0.009425947960007407,0.0026750936472424492,0.003592353883388175
1623769816.9044309,0.1597683959450431,7.873562963537838e-06,2.63,2.43,0.4957291781902313,0.016483407467603683,-0.7317073345184326,0.12060546875,-0.21142578125,0.48630916440872846,0.00912363005535776,0.5111715930240184,0.009425947960007407,0.0026750936472424492,0.003592353883388175
1623769816.9044309,0.1579117912574505,7.615552085841515e-06,2.69,2.44,0.5035683512687683,0.016483405604958534,-0.7317073345184326,0.12060546875,-0.21142578125,0.48630916440872846,0.00912363005535776,0.5111715930240184,0.009425947960007407,0.0026750936472424492,0.003592353883388175
1623769816.9044309,0.1579117912574505,7.615552085841515e-06,2.69,2.44,0.5035683512687683,0.016483405604958534,-0.7317073345184326,0.12060546875,-0.21142578125,0.48630916440872846,0.00912363005535776,0.5111715930240184,0.009425947960007407,0.0026750936472424492,0.003592353883388175
1623769816.9044309,0.1579117912574505,7.615552085841515e-06,2.69,2.44,0.5035683512687683,0.016483405604958534,-0.7317073345184326,0.12060546875,-0.21142578125,0.48630916440872846,0.00912363005535776,0.5076288382216244,0.009322110519996022,0.0026750936472424492,0.003313878972523011
1623769816.9044309,0.1579117912574505,7.615552085841515e-06,2.69,2.44,0.5035683512687683,0.016483405604958534,-1.7682926654815674,-0.146484375,-0.1337890625,0.48630916440872846,0.00912363005535776,0.5076288382216244,0.009322110519996022,0.0026750936472424492,0.003313878972523011
1623769816.9044309,0.1579117912574505,7.615552085841515e-06,2.69,2.44,0.5035683512687683,0.016483405604958534,-1.7682926654815674,-0.146484375,-0.1337890625,0.48630916440872846,0.00912363005535776,0.5076288382216244,0.009322110519996022,0.0026750936472424492,0.003313878972523011
1623769816.964431,0.15562898202061548,6.8599989581903455e-06,2.69,2.44,0.5096378326416016,-1.7032194591592997e-05,-1.7682926654815674,-0.146484375,-0.1337890625,0.48630916440872846,0.00912363005535776,0.5076288382216244,0.009322110519996022,0.0026750936472424492,0.003313878972523011
1623769816.964431,0.15562898202061548,6.8599989581903455e-06,2.69,2.44,0.5096378326416016,-1.7032194591592997e-05,-1.7682926654815674,-0.146484375,-0.1337890625,0.48809685896449784,0.008552603473658653,0.5076288382216244,0.009322110519996022,0.002694628896293233,0.003313878972523011
1623769816.964431,0.15562898202061548,6.8599989581903455e-06,2.69,2.44,0.5096378326416016,-1.7032194591592997e-05,-1.7682926654815674,-0.146484375,-0.1337890625,0.48809685896449784,0.008552603473658653,0.5076288382216244,0.009322110519996022,0.002694628896293233,0.003313878972523011
1623769816.964431,0.15562898202061548,6.8599989581903455e-06,2.69,2.44,0.5096378326416016,-1.7032194591592997e-05,-1.7682926654815674,-0.146484375,-0.1337890625,0.48809685896449784,0.008552603473658653,0.5076288382216244,0.009322110519996022,0.002694628896293233,0.003313878972523011
1623769816.964431,0.15562898202061548,6.8599989581903455e-06,2.69,2.44,0.5096378326416016,-1.7032194591592997e-05,-1.7682926654815674,-0.146484375,-0.1337890625,0.48809685896449784,0.008552603473658653,0.5076288382216244,0.009322110519996022,0.002694628896293233,0.003313878972523011
1623769817.024431,0.15299220577084746,5.837785695675829e-06,2.73,2.45,0.5096378326416016,-1.7032194591592997e-05,-1.7682926654815674,-0.146484375,-0.1337890625,0.48982560458083885,0.008446053968947162,0.5127578960834426,0.009051336320501611,0.0027081413556801393,0.003410339157522687
1623769817.024431,0.15299220577084746,5.837785695675829e-06,2.73,2.45,0.49965059757232666,0.016500432044267654,-1.7682926654815674,-0.146484375,-0.1337890625,0.48982560458083885,0.008446053968947162,0.5127578960834426,0.009051336320501611,0.0027081413556801393,0.003410339157522687
1623769817.024431,0.15299220577084746,5.837785695675829e-06,2.73,2.45,0.49965059757232666,0.016500432044267654,-1.7682926654815674,-0.146484375,-0.1337890625,0.48982560458083885,0.008446053968947162,0.5127578960834426,0.009051336320501611,0.0027081413556801393,0.003410339157522687
1623769817.024431,0.15299220577084746,5.837785695675829e-06,2.73,2.45,0.49965059757232666,0.016500432044267654,0.12195122241973877,-0.0625,0.18408203125,0.48982560458083885,0.008446053968947162,0.5127578960834426,0.009051336320501611,0.0027081413556801393,0.003410339157522687
1623769817.024431,0.15299220577084746,5.837785695675829e-06,2.73,2.45,0.49965059757232666,0.016500432044267654,0.12195122241973877,-0.0625,0.18408203125,0.48982560458083885,0.008446053968947162,0.5170787842914579,0.008784843367208051,0.0027081413556801393,0.003422580459011177
1623769817.084431,0.15006204836690656,4.631157986755512e-06,2.73,2.45,0.49965059757232666,0.016500432044267654,0.12195122241973877,-0.0625,0.18408203125,0.4913281755604106,0.007912086093052688,0.5170787842914579,0.008784843367208051,0.0026922462032287087,0.003422580459011177
1623769817.084431,0.15006204836690656,4.631157986755512e-06,2.73,2.45,0.49965059757232666,0.016500432044267654,0.12195122241973877,-0.0625,0.18408203125,0.4913281755604106,0.007912086093052688,0.5170787842914579,0.008784843367208051,0.0026922462032287087,0.003422580459011177
1623769817.084431,0.15006204836690656,4.631157986755512e-06,2.73,2.45,0.4978768229484558,3.983538388041552e-09,0.12195122241973877,-0.0625,0.18408203125,0.4913281755604106,0.007912086093052688,0.5206801774712301,0.008453293262488781,0.0026922462032287087,0.0033956448801042522
1623769817.084431,0.15006204836690656,4.631157986755512e-06,2.73,2.45,0.4978768229484558,3.983538388041552e-09,0.12195122241973877,-0.0625,0.18408203125,0.4913281755604106,0.007912086093052688,0.5206801774712301,0.008453293262488781,0.0026922462032287087,0.0033956448801042522
1623769817.084431,0.15006204836690656,4.631157986755512e-06,2.73,2.45,0.4978768229484558,3.983538388041552e-09,0.12195122241973877,-0.0625,0.18408203125,0.4913281755604106,0.007912086093052688,0.5206801774712301,0.008453293262488781,0.0026922462032287087,0.0033956448801042522
1623769817.148951,0.14668205067022297,3.5199308373914774e-06,2.79,2.43,0.4978768229484558,3.983538388041552e-09,0.12195122241973877,-0.0625,0.18408203125,0.4912162201803925,0.006486527632497622,0.5206801774712301,0.008453293262488781,0.0030218567365539123,0.0033956448801042522
