time,la_x,la_y,uwb_x,uwb_y,vel_linear_x,vel_angular_z,mpu_ang_vel_z,mpu_linear_acc_x,mpu_linear_acc_y,odom_linear_x,odom_angular_z,odom_filtered_linear_x,odom_filtered_angular_z,odom_yaw,odom_filtered_yaw
1623419884.610678,3.148444612225265e-10,-4.6533592920010374e-11,0.0,0.0,1.1690274277498247e-06,-1.0874673534999602e-05,1.3414634466171265,-0.0048828125,0.00732421875,,,,,,
1623419884.610678,3.148444612225265e-10,-4.6533592920010374e-11,0.0,0.0,1.1690274277498247e-06,-1.0874673534999602e-05,1.3414634466171265,-0.0048828125,0.00732421875,,,-7.908717825240236e-07,0.0015383322267253543,,0.05735526254701041
1623419884.670678,-1.7591815724291184e-10,-4.978449554430942e-11,0.0,0.0,1.1690274277498247e-06,-1.0874673534999602e-05,1.3414634466171265,-0.0048828125,0.00732421875,-7.966890214309795e-07,0.0016568497359518068,-7.908717825240236e-07,0.0015383322267253543,0.055815339448040784,0.05735526254701041
1623419884.670678,-1.7591815724291184e-10,-4.978449554430942e-11,0.0,0.0,1.1690274277498247e-06,-1.0874673534999602e-05,1.3414634466171265,-0.0048828125,0.00732421875,-7.966890214309795e-07,0.0016568497359518068,-7.917885025075431e-07,0.0015321407369312783,0.055815339448040784,0.05735576378485448
1623419884.670678,-1.7591815724291184e-10,-4.978449554430942e-11,0.0,0.0,1.1690274277498247e-06,-1.0874673534999602e-05,1.3414634466171265,-0.0048828125,0.00732421875,-7.966890214309795e-07,0.0016568497359518068,-7.917885025075431e-07,0.0015321407369312783,0.055815339448040784,0.05735576378485448
1623419884.670678,-1.7591815724291184e-10,-4.978449554430942e-11,0.0,0.0,1.1690274277498247e-06,-1.0874673534999602e-05,1.3414634466171265,-0.0048828125,0.00732421875,-7.966890214309795e-07,0.0016568497359518068,-7.917885025075431e-07,0.0015321407369312783,0.055815339448040784,0.05735576378485448
1623419884.670678,-1.7591815724291184e-10,-4.978449554430942e-11,0.0,0.0,1.1834597444249084e-06,-1.1008928595401812e-05,1.3414634466171265,-0.0048828125,0.00732421875,-7.966890214309795e-07,0.0016568497359518068,-7.917885025075431e-07,0.0015321407369312783,0.055815339448040784,0.05735576378485448
1623419884.7306778,-5.715257389273083e-10,-5.25364914873174e-11,3.21,1.05,1.1834597444249084e-06,-1.1008928595401812e-05,1.3414634466171265,-0.0048828125,0.00732421875,-7.964237218113117e-07,0.0015526286787912657,-7.925542315192755e-07,0.0014730495155725893,0.055811909685671866,0.05735161044094527
1623419884.7306778,-5.715257389273083e-10,-5.25364914873174e-11,3.21,1.05,1.1834597444249084e-06,-1.1008928595401812e-05,1.3414634466171265,-0.0048828125,0.00732421875,-7.964237218113117e-07,0.0015526286787912657,-7.925542315192755e-07,0.0014730495155725893,0.055811909685671866,0.05735161044094527
1623419884.7306778,-5.715257389273083e-10,-5.25364914873174e-11,3.21,1.05,1.1834597444249084e-06,-1.1008928595401812e-05,1.3414634466171265,-0.0048828125,0.00732421875,-7.964237218113117e-07,0.0015526286787912657,-7.925542315192755e-07,0.0014730495155725893,0.055811909685671866,0.05735161044094527
1623419884.7306778,-5.715257389273083e-10,-5.25364914873174e-11,3.21,1.05,1.1834597444249084e-06,-1.1008928595401812e-05,1.2804877758026123,-0.001953125,0.00927734375,-7.964237218113117e-07,0.0015526286787912657,-7.925542315192755e-07,0.0014730495155725893,0.055811909685671866,0.05735161044094527
1623419884.7306778,-5.715257389273083e-10,-5.25364914873174e-11,3.21,1.05,1.1690274277498247e-06,-1.0874673534999602e-05,1.2804877758026123,-0.001953125,0.00927734375,-7.964237218113117e-07,0.0015526286787912657,-7.925542315192755e-07,0.0014730495155725893,0.055811909685671866,0.05735161044094527
1623419884.764678,1.2501954137613084e-09,-5.4629213709604315e-11,3.21,1.05,1.1690274277498247e-06,-1.0874673534999602e-05,1.2804877758026123,-0.001953125,0.00927734375,-7.69345225784365e-07,0.0017995338252944732,-7.890980202102462e-07,0.0015766963851946442,0.055879562097911645,0.057359403632598026
1623419884.764678,1.2501954137613084e-09,-5.4629213709604315e-11,3.21,1.05,1.1690274277498247e-06,-1.0874673534999602e-05,1.2804877758026123,-0.001953125,0.00927734375,-7.69345225784365e-07,0.0017995338252944732,-7.890980202102462e-07,0.0015766963851946442,0.055879562097911645,0.057359403632598026
1623419884.764678,1.2501954137613084e-09,-5.4629213709604315e-11,3.21,1.05,1.1690274277498247e-06,-1.0874673534999602e-05,1.2804877758026123,-0.001953125,0.00927734375,-7.69345225784365e-07,0.0017995338252944732,-7.890980202102462e-07,0.0015766963851946442,0.055879562097911645,0.057359403632598026
1623419884.764678,1.2501954137613084e-09,-5.4629213709604315e-11,3.21,1.05,1.1690274277498247e-06,-1.0874673534999602e-05,1.2804877758026123,-0.001953125,0.00927734375,-7.69345225784365e-07,0.0017995338252944732,-7.890980202102462e-07,0.0015766963851946442,0.055879562097911645,0.057359403632598026
1623419884.764678,1.2501954137613084e-09,-5.4629213709604315e-11,3.21,1.05,1.1690274277498247e-06,-1.0874673534999602e-05,1.2804877758026123,-0.001953125,0.00927734375,-7.69345225784365e-07,0.0017995338252944732,-7.890980202102462e-07,0.0015766963851946442,0.055879562097911645,0.057359403632598026
1623419884.790678,6.438215097125022e-10,-5.627711767622072e-11,3.22,1.04,1.1690274277498247e-06,-1.0874673534999602e-05,1.2804877758026123,-0.001953125,0.00927734375,-7.970060164652364e-07,0.0017481291966666905,-7.902208171782972e-07,0.0015848341375447443,0.05581908012434061,0.0573150255671879
1623419884.790678,6.438215097125022e-10,-5.627711767622072e-11,3.22,1.04,1.1690274277498247e-06,-1.0874673534999602e-05,1.2804877758026123,-0.001953125,0.00927734375,-7.970060164652364e-07,0.0017481291966666905,-7.902208171782972e-07,0.0015848341375447443,0.05581908012434061,0.0573150255671879
1623419884.790678,6.438215097125022e-10,-5.627711767622072e-11,3.22,1.04,1.1690274277498247e-06,-1.0874673534999602e-05,1.2804877758026123,-0.01220703125,0.00830078125,-7.970060164652364e-07,0.0017481291966666905,-7.902208171782972e-07,0.0015848341375447443,0.05581908012434061,0.0573150255671879
1623419884.790678,6.438215097125022e-10,-5.627711767622072e-11,3.22,1.04,1.1690274277498247e-06,-1.0874673534999602e-05,1.2804877758026123,-0.01220703125,0.00830078125,-7.970060164652364e-07,0.0017481291966666905,-7.902208171782972e-07,0.0015848341375447443,0.05581908012434061,0.0573150255671879
1623419884.790678,6.438215097125022e-10,-5.627711767622072e-11,3.22,1.04,1.1690274277498247e-06,-1.0874673534999602e-05,1.2804877758026123,-0.01220703125,0.00830078125,-7.970060164652364e-07,0.0017481291966666905,-7.902208171782972e-07,0.0015848341375447443,0.05581908012434061,0.0573150255671879
1623419884.8686779,1.283825064817848e-09,-5.7656153412260885e-11,3.22,1.04,1.1690274277498247e-06,-1.0874673534999602e-05,1.2804877758026123,-0.01220703125,0.00830078125,-7.823943381521497e-07,0.001786834875321951,-7.889501745896065e-07,0.0016359780805435525,0.05585282839720218,0.057376487766084734
1623419884.8686779,1.283825064817848e-09,-5.7656153412260885e-11,3.22,1.04,1.1690274277498247e-06,-1.0874673534999602e-05,1.2804877758026123,-0.01220703125,0.00830078125,-7.823943381521497e-07,0.001786834875321951,-7.889501745896065e-07,0.0016359780805435525,0.05585282839720218,0.057376487766084734
1623419884.8686779,1.283825064817848e-09,-5.7656153412260885e-11,3.22,1.04,1.154942651737656e-06,-1.0743652637756895e-05,1.2804877758026123,-0.01220703125,0.00830078125,-7.823943381521497e-07,0.001786834875321951,-7.889501745896065e-07,0.0016359780805435525,0.05585282839720218,0.057376487766084734
1623419884.8686779,1.283825064817848e-09,-5.7656153412260885e-11,3.22,1.04,1.154942651737656e-06,-1.0743652637756895e-05,1.2804877758026123,-0.01220703125,0.00830078125,-7.823943381521497e-07,0.001786834875321951,-7.889501745896065e-07,0.0016359780805435525,0.05585282839720218,0.057376487766084734
1623419884.8686779,1.283825064817848e-09,-5.7656153412260885e-11,3.22,1.0,1.154942651737656e-06,-1.0743652637756895e-05,1.2804877758026123,-0.01220703125,0.00830078125,-7.823943381521497e-07,0.001786834875321951,-7.889501745896065e-07,0.0016359780805435525,0.05585282839720218,0.057376487766084734
1623419884.910678,6.086479803326615e-10,-5.864015447998993e-11,3.22,1.0,1.154942651737656e-06,-1.0743652637756895e-05,1.2804877758026123,-0.01220703125,0.00830078125,-7.971628165581506e-07,0.0017068010371962617,-7.901832932948409e-07,0.0016041345186258876,0.055818886063334024,0.057352221611235175
1623419884.910678,6.086479803326615e-10,-5.864015447998993e-11,3.22,1.0,1.154942651737656e-06,-1.0743652637756895e-05,1.2804877758026123,-0.01220703125,0.00830078125,-7.971628165581506e-07,0.0017068010371962617,-7.901832932948409e-07,0.0016041345186258876,0.055818886063334024,0.057352221611235175
1623419884.910678,6.086479803326615e-10,-5.864015447998993e-11,3.22,1.0,1.154942651737656e-06,-1.0743652637756895e-05,1.2804877758026123,-0.01220703125,0.00830078125,-7.971628165581506e-07,0.0017068010371962617,-7.901832932948409e-07,0.0016041345186258876,0.055818886063334024,0.057352221611235175
1623419884.910678,6.086479803326615e-10,-5.864015447998993e-11,3.22,1.0,1.1690274277498247e-06,-1.0874673534999602e-05,1.402438998222351,-0.00732421875,0.00732421875,-7.971628165581506e-07,0.0017068010371962617,-7.901832932948409e-07,0.0016041345186258876,0.055818886063334024,0.057352221611235175
1623419884.910678,6.086479803326615e-10,-5.864015447998993e-11,3.22,1.0,1.1690274277498247e-06,-1.0874673534999602e-05,1.402438998222351,-0.00732421875,0.00732421875,-7.971628165581506e-07,0.0017068010371962617,-7.901832932948409e-07,0.0016041345186258876,0.055818886063334024,0.057352221611235175
1623419884.972678,1.7819795738347033e-10,-5.935573029168461e-11,3.22,1.0,1.1690274277498247e-06,-1.0874673534999602e-05,1.402438998222351,-0.00732421875,0.00732421875,-7.952658024186122e-07,0.0019893621854852536,-7.909667178982277e-07,0.0017182877749131109,0.055830791352882055,0.05737129697532077
1623419884.972678,1.7819795738347033e-10,-5.935573029168461e-11,3.22,1.0,1.1690274277498247e-06,-1.0874673534999602e-05,1.402438998222351,-0.00732421875,0.00732421875,-7.952658024186122e-07,0.0019893621854852536,-7.909667178982277e-07,0.0017182877749131109,0.055830791352882055,0.05737129697532077
1623419884.972678,1.7819795738347033e-10,-5.935573029168461e-11,3.22,1.0,1.1690274277498247e-06,-1.0874673534999602e-05,1.402438998222351,-0.00732421875,0.00732421875,-7.952658024186122e-07,0.0019893621854852536,-7.909667178982277e-07,0.0017182877749131109,0.055830791352882055,0.05737129697532077
1623419884.972678,1.7819795738347033e-10,-5.935573029168461e-11,3.22,1.0,1.1834597444249084e-06,-1.1008928595401812e-05,1.402438998222351,-0.00732421875,0.00732421875,-7.952658024186122e-07,0.0019893621854852536,-7.909667178982277e-07,0.0017182877749131109,0.055830791352882055,0.05737129697532077
1623419884.972678,1.7819795738347033e-10,-5.935573029168461e-11,3.22,1.0,1.1834597444249084e-06,-1.1008928595401812e-05,1.402438998222351,-0.00732421875,0.00732421875,-7.952658024186122e-07,0.0019893621854852536,-7.909667178982277e-07,0.0017182877749131109,0.055830791352882055,0.05737129697532077
1623419885.0306778,-3.076258647569844e-10,-5.977237458483735e-11,3.22,1.0,1.1834597444249084e-06,-1.1008928595401812e-05,1.402438998222351,-0.00732421875,0.00732421875,-7.966561383586587e-07,0.001868367186868778,-7.918841171584327e-07,0.001706889337849877,0.055825325662071885,0.05737677598391885
1623419885.0306778,-3.076258647569844e-10,-5.977237458483735e-11,3.22,1.0,1.1834597444249084e-06,-1.1008928595401812e-05,1.402438998222351,-0.01171875,0.00341796875,-7.966561383586587e-07,0.001868367186868778,-7.918841171584327e-07,0.001706889337849877,0.055825325662071885,0.05737677598391885
1623419885.0306778,-3.076258647569844e-10,-5.977237458483735e-11,3.22,1.0,1.1834597444249084e-06,-1.1008928595401812e-05,1.402438998222351,-0.01171875,0.00341796875,-7.966561383586587e-07,0.001868367186868778,-7.918841171584327e-07,0.001706889337849877,0.055825325662071885,0.05737677598391885
1623419885.0306778,-3.076258647569844e-10,-5.977237458483735e-11,3.22,1.0,1.1834597444249084e-06,-1.1008928595401812e-05,1.402438998222351,-0.01171875,0.00341796875,-7.966561383586587e-07,0.001868367186868778,-7.918841171584327e-07,0.001706889337849877,0.055825325662071885,0.05737677598391885
1623419885.0306778,-3.076258647569844e-10,-5.977237458483735e-11,3.22,1.0,1.154942651737656e-06,-1.0743652637756895e-05,1.402438998222351,-0.01171875,0.00341796875,-7.966561383586587e-07,0.001868367186868778,-7.918841171584327e-07,0.001706889337849877,0.055825325662071885,0.05737677598391885
1623419885.0566778,9.22131470256068e-10,-6.003129382174166e-11,3.22,1.0,1.154942651737656e-06,-1.0743652637756895e-05,1.402438998222351,-0.01171875,0.00341796875,-7.759430392749645e-07,0.001654289164867569,-7.895457419019396e-07,0.0016534654978152643,0.05586432928746815,0.05736156055106615
1623419885.0566778,9.22131470256068e-10,-6.003129382174166e-11,3.22,1.0,1.154942651737656e-06,-1.0743652637756895e-05,1.402438998222351,-0.01171875,0.00341796875,-7.759430392749645e-07,0.001654289164867569,-7.895457419019396e-07,0.0016534654978152643,0.05586432928746815,0.05736156055106615
1623419885.0566778,9.22131470256068e-10,-6.003129382174166e-11,3.22,1.0,1.154942651737656e-06,-1.0743652637756895e-05,1.402438998222351,-0.01171875,0.00341796875,-7.759430392749645e-07,0.001654289164867569,-7.895457419019396e-07,0.0016534654978152643,0.05586432928746815,0.05736156055106615
1623419885.0566778,9.22131470256068e-10,-6.003129382174166e-11,3.22,1.0,1.154942651737656e-06,-1.0743652637756895e-05,1.402438998222351,-0.01171875,0.00341796875,-7.759430392749645e-07,0.001654289164867569,-7.895457419019396e-07,0.0016534654978152643,0.05586432928746815,0.05736156055106615
1623419885.0566778,9.22131470256068e-10,-6.003129382174166e-11,3.23,0.98,1.154942651737656e-06,-1.0743652637756895e-05,1.402438998222351,-0.01171875,0.00341796875,-7.759430392749645e-07,0.001654289164867569,-7.895457419019396e-07,0.0016534654978152643,0.05586432928746815,0.05736156055106615
1623419885.090678,3.332598151239531e-10,-6.004431459020454e-11,3.23,0.98,1.1690274277498247e-06,-1.0874673534999602e-05,1.402438998222351,-0.01171875,0.00341796875,-7.97204941501844e-07,0.0015938934617095912,-7.906359907865445e-07,0.0015863260921525166,0.05581626360617788,0.05732629949451561
1623419885.090678,3.332598151239531e-10,-6.004431459020454e-11,3.23,0.98,1.1690274277498247e-06,-1.0874673534999602e-05,1.402438998222351,-0.01171875,0.00341796875,-7.97204941501844e-07,0.0015938934617095912,-7.906359907865445e-07,0.0015863260921525166,0.05581626360617788,0.05732629949451561
1623419885.090678,3.332598151239531e-10,-6.004431459020454e-11,3.23,0.98,1.1690274277498247e-06,-1.0874673534999602e-05,1.2804877758026123,-0.0078125,0.01318359375,-7.97204941501844e-07,0.0015938934617095912,-7.906359907865445e-07,0.0015863260921525166,0.05581626360617788,0.05732629949451561
1623419885.090678,3.332598151239531e-10,-6.004431459020454e-11,3.23,0.98,1.1690274277498247e-06,-1.0874673534999602e-05,1.2804877758026123,-0.0078125,0.01318359375,-7.97204941501844e-07,0.0015938934617095912,-7.906359907865445e-07,0.0015863260921525166,0.05581626360617788,0.05732629949451561
1623419885.090678,3.332598151239531e-10,-6.004431459020454e-11,3.23,0.98,1.1690274277498247e-06,-1.0874673534999602e-05,1.2804877758026123,-0.0078125,0.01318359375,-7.97204941501844e-07,0.0015938934617095912,-7.906359907865445e-07,0.0015863260921525166,0.05581626360617788,0.05732629949451561
1623419885.160678,4.696797946045946e-10,-5.985149455067356e-11,3.23,0.98,1.1690274277498247e-06,-1.0874673534999602e-05,1.2804877758026123,-0.0078125,0.01318359375,-7.889372289389495e-07,0.0017951182674904637,-7.903528208274342e-07,0.0016368795196440957,0.05583770887732781,0.057366630834989545
1623419885.160678,4.696797946045946e-10,-5.985149455067356e-11,3.23,0.98,1.1834597444249084e-06,-1.1008928595401812e-05,1.2804877758026123,-0.0078125,0.01318359375,-7.889372289389495e-07,0.0017951182674904637,-7.903528208274342e-07,0.0016368795196440957,0.05583770887732781,0.057366630834989545
1623419885.160678,4.696797946045946e-10,-5.985149455067356e-11,3.23,0.98,1.1834597444249084e-06,-1.1008928595401812e-05,1.2804877758026123,-0.0078125,0.01318359375,-7.889372289389495e-07,0.0017951182674904637,-7.903528208274342e-07,0.0016368795196440957,0.05583770887732781,0.057366630834989545
1623419885.160678,4.696797946045946e-10,-5.985149455067356e-11,3.23,0.98,1.1834597444249084e-06,-1.1008928595401812e-05,1.2804877758026123,-0.0078125,0.01318359375,-7.889372289389495e-07,0.0017951182674904637,-7.903528208274342e-07,0.0016368795196440957,0.05583770887732781,0.057366630834989545
1623419885.160678,4.696797946045946e-10,-5.985149455067356e-11,3.23,0.99,1.1834597444249084e-06,-1.1008928595401812e-05,1.2804877758026123,-0.0078125,0.01318359375,-7.889372289389495e-07,0.0017951182674904637,-7.903528208274342e-07,0.0016368795196440957,0.05583770887732781,0.057366630834989545
1623419885.2106779,-8.402590258534712e-11,-5.946983294042918e-11,3.23,0.99,1.1834597444249084e-06,-1.1008928595401812e-05,1.2804877758026123,-0.0078125,0.01318359375,-7.970657984306561e-07,0.0017005604886745928,-7.913839333963571e-07,0.0016027837729127349,0.055818129378312216,0.05735604792806247
1623419885.2106779,-8.402590258534712e-11,-5.946983294042918e-11,3.23,0.99,1.1834597444249084e-06,-1.1008928595401812e-05,1.2804877758026123,-0.0078125,0.01318359375,-7.970657984306561e-07,0.0017005604886745928,-7.913839333963571e-07,0.0016027837729127349,0.055818129378312216,0.05735604792806247
1623419885.2106779,-8.402590258534712e-11,-5.946983294042918e-11,3.23,0.99,1.1690274277498247e-06,-1.0874673534999602e-05,1.3414634466171265,-0.0029296875,0.0048828125,-7.970657984306561e-07,0.0017005604886745928,-7.913839333963571e-07,0.0016027837729127349,0.055818129378312216,0.05735604792806247
1623419885.2106779,-8.402590258534712e-11,-5.946983294042918e-11,3.23,0.99,1.1690274277498247e-06,-1.0874673534999602e-05,1.3414634466171265,-0.0029296875,0.0048828125,-7.970657984306561e-07,0.0017005604886745928,-7.913839333963571e-07,0.0016027837729127349,0.055818129378312216,0.05735604792806247
1623419885.2106779,-8.402590258534712e-11,-5.946983294042918e-11,3.23,0.99,1.1690274277498247e-06,-1.0874673534999602e-05,1.3414634466171265,-0.0029296875,0.0048828125,-7.970657984306561e-07,0.0017005604886745928,-7.913839333963571e-07,0.0016027837729127349,0.055818129378312216,0.05735604792806247
1623419885.2706778,-5.619338686387024e-10,-5.8927717464709e-11,3.23,0.99,1.1690274277498247e-06,-1.0874673534999602e-05,1.3414634466171265,-0.0029296875,0.0048828125,-7.970648311011653e-07,0.001922179644333498,-7.922999976961128e-07,0.0016834643045396756,0.05582499994946178,0.057366810476813156
1623419885.2706778,-5.619338686387024e-10,-5.8927717464709e-11,3.23,0.99,1.1690274277498247e-06,-1.0874673534999602e-05,1.3414634466171265,-0.0029296875,0.0048828125,-7.970648311011653e-07,0.001922179644333498,-7.922999976961128e-07,0.0016834643045396756,0.05582499994946178,0.057366810476813156
1623419885.2706778,-5.619338686387024e-10,-5.8927717464709e-11,3.23,0.99,1.1690274277498247e-06,-1.0874673534999602e-05,1.3414634466171265,-0.0029296875,0.0048828125,-7.970648311011653e-07,0.001922179644333498,-7.922999976961128e-07,0.0016834643045396756,0.05582499994946178,0.057366810476813156
1623419885.2706778,-5.619338686387024e-10,-5.8927717464709e-11,3.23,0.99,1.1690274277498247e-06,-1.0874673534999602e-05,1.3414634466171265,-0.0029296875,0.0048828125,-7.970648311011653e-07,0.001922179644333498,-7.922999976961128e-07,0.0016834643045396756,0.05582499994946178,0.057366810476813156
1623419885.2706778,-5.619338686387024e-10,-5.8927717464709e-11,3.23,1.01,1.1690274277498247e-06,-1.0874673534999602e-05,1.3414634466171265,-0.0029296875,0.0048828125,-7.970648311011653e-07,0.001922179644333498,-7.922999976961128e-07,0.0016834643045396756,0.05582499994946178,0.057366810476813156
1623419885.330678,-9.399114993306686e-10,-5.82411701411812e-11,3.23,1.01,1.1690274277498247e-06,-1.0874673534999602e-05,1.3414634466171265,-0.0029296875,0.0048828125,-7.967482624822332e-07,0.0018012992638254104,-7.93055209713594e-07,0.0016586350567858008,0.055822669550997094,0.057373708974294536
1623419885.330678,-9.399114993306686e-10,-5.82411701411812e-11,3.23,1.01,1.1690274277498247e-06,-1.0874673534999602e-05,1.3414634466171265,-0.0029296875,0.0048828125,-7.967482624822332e-07,0.0018012992638254104,-7.93055209713594e-07,0.0016586350567858008,0.055822669550997094,0.057373708974294536
1623419885.330678,-9.399114993306686e-10,-5.82411701411812e-11,3.23,1.01,1.1690274277498247e-06,-1.0874673534999602e-05,1.402438998222351,-0.00732421875,-0.00048828125,-7.967482624822332e-07,0.0018012992638254104,-7.93055209713594e-07,0.0016586350567858008,0.055822669550997094,0.057373708974294536
1623419885.330678,-9.399114993306686e-10,-5.82411701411812e-11,3.23,1.01,1.1690274277498247e-06,-1.0874673534999602e-05,1.402438998222351,-0.00732421875,-0.00048828125,-7.967482624822332e-07,0.0018012992638254104,-7.93055209713594e-07,0.0016586350567858008,0.055822669550997094,0.057373708974294536
1623419885.330678,-9.399114993306686e-10,-5.82411701411812e-11,3.23,1.01,1.1690274277498247e-06,-1.0874673534999602e-05,1.402438998222351,-0.00732421875,-0.00048828125,-7.664719525961289e-07,0.0018890298488144482,-7.93055209713594e-07,0.0016586350567858008,0.05589763719035143,0.057373708974294536
1623419885.3686779,1.1634776993767458e-09,-5.765298914734409e-11,3.23,1.01,1.1690274277498247e-06,-1.0874673534999602e-05,1.402438998222351,-0.00732421875,-0.00048828125,-7.664719525961289e-07,0.0018890298488144482,-7.890771450568907e-07,0.0017239190732761638,0.05589763719035143,0.05739345451637519
1623419885.3686779,1.1634776993767458e-09,-5.765298914734409e-11,3.23,1.01,1.1690274277498247e-06,-1.0874673534999602e-05,1.402438998222351,-0.00732421875,-0.00048828125,-7.664719525961289e-07,0.0018890298488144482,-7.890771450568907e-07,0.0017239190732761638,0.05589763719035143,0.05739345451637519
1623419885.3686779,1.1634776993767458e-09,-5.765298914734409e-11,3.23,1.01,1.1690274277498247e-06,-1.0874673534999602e-05,1.402438998222351,-0.00732421875,-0.00048828125,-7.664719525961289e-07,0.0018890298488144482,-7.890771450568907e-07,0.0017239190732761638,0.05589763719035143,0.05739345451637519
1623419885.3686779,1.1634776993767458e-09,-5.765298914734409e-11,3.23,1.01,1.1690274277498247e-06,-1.0874673534999602e-05,1.402438998222351,-0.00732421875,-0.00048828125,-7.664719525961289e-07,0.0018890298488144482,-7.890771450568907e-07,0.0017239190732761638,0.05589763719035143,0.05739345451637519
1623419885.3686779,1.1634776993767458e-09,-5.765298914734409e-11,3.23,1.02,1.1690274277498247e-06,-1.0874673534999602e-05,1.402438998222351,-0.00732421875,-0.00048828125,-7.664719525961289e-07,0.0018890298488144482,-7.890771450568907e-07,0.0017239190732761638,0.05589763719035143,0.05739345451637519
1623419885.390678,5.392378201364064e-10,-5.697095847661194e-11,3.23,1.02,1.1690274277498247e-06,-1.0874673534999602e-05,1.402438998222351,-0.00732421875,-0.00048828125,-7.972428833585821e-07,0.0018425496343545862,-7.902413165106636e-07,0.001713687411895121,0.0558248272421919,0.057343337735037886
1623419885.390678,5.392378201364064e-10,-5.697095847661194e-11,3.23,1.02,1.1690274277498247e-06,-1.0874673534999602e-05,1.2804877758026123,-0.00390625,-0.0029296875,-7.972428833585821e-07,0.0018425496343545862,-7.902413165106636e-07,0.001713687411895121,0.0558248272421919,0.057343337735037886
1623419885.390678,5.392378201364064e-10,-5.697095847661194e-11,3.23,1.02,1.1690274277498247e-06,-1.0874673534999602e-05,1.2804877758026123,-0.00390625,-0.0029296875,-7.972428833585821e-07,0.0018425496343545862,-7.902413165106636e-07,0.001713687411895121,0.0558248272421919,0.057343337735037886
1623419885.390678,5.392378201364064e-10,-5.697095847661194e-11,3.23,1.02,1.1690274277498247e-06,-1.0874673534999602e-05,1.2804877758026123,-0.00390625,-0.0029296875,-7.972428833585821e-07,0.0018425496343545862,-7.902413165106636e-07,0.001713687411895121,0.0558248272421919,0.057343337735037886
1623419885.390678,5.392378201364064e-10,-5.697095847661194e-11,3.23,1.02,1.1690274277498247e-06,-1.0874673534999602e-05,1.2804877758026123,-0.00390625,-0.0029296875,-7.953437305805083e-07,0.0018913340639260606,-7.902413165106636e-07,0.001713687411895121,0.05582950813112593,0.057343337735037886
1623419885.452678,1.2795379412213595e-10,-5.613754302831574e-11,3.23,1.02,1.1690274277498247e-06,-1.0874673534999602e-05,1.2804877758026123,-0.00390625,-0.0029296875,-7.953437305805083e-07,0.0018913340639260606,-7.909909546451411e-07,0.0017458778616127244,0.05582950813112593,0.05736605530201571
1623419885.452678,1.2795379412213595e-10,-5.613754302831574e-11,3.23,1.02,1.1834597444249084e-06,-1.1008928595401812e-05,1.2804877758026123,-0.00390625,-0.0029296875,-7.953437305805083e-07,0.0018913340639260606,-7.909909546451411e-07,0.0017458778616127244,0.05582950813112593,0.05736605530201571
1623419885.452678,1.2795379412213595e-10,-5.613754302831574e-11,3.23,1.02,1.1834597444249084e-06,-1.1008928595401812e-05,1.2804877758026123,-0.00390625,-0.0029296875,-7.953437305805083e-07,0.0018913340639260606,-7.909909546451411e-07,0.0017458778616127244,0.05582950813112593,0.05736605530201571
1623419885.452678,1.2795379412213595e-10,-5.613754302831574e-11,3.23,1.02,1.1834597444249084e-06,-1.1008928595401812e-05,1.2804877758026123,-0.00390625,-0.0029296875,-7.953437305805083e-07,0.0018913340639260606,-7.909909546451411e-07,0.0017458778616127244,0.05582950813112593,0.05736605530201571
1623419885.452678,1.2795379412213595e-10,-5.613754302831574e-11,3.23,1.02,1.1834597444249084e-06,-1.1008928595401812e-05,1.2804877758026123,-0.00390625,-0.0029296875,-7.967299097664219e-07,0.0017768525546041543,-7.909909546451411e-07,0.0017458778616127244,0.05582245082896391,0.05736605530201571
1623419885.5106778,-3.4535723819044505e-10,-5.517309915059804e-11,3.23,1.02,1.1834597444249084e-06,-1.1008928595401812e-05,1.2804877758026123,-0.00390625,-0.0029296875,-7.967299097664219e-07,0.0017768525546041543,-7.918848210849109e-07,0.001700304034589893,0.05582245082896391,0.05737393571000653
1623419885.5106778,-3.4535723819044505e-10,-5.517309915059804e-11,3.23,1.02,1.1834597444249084e-06,-1.1008928595401812e-05,1.402438998222351,0.0,0.0009765625,-7.967299097664219e-07,0.0017768525546041543,-7.918848210849109e-07,0.001700304034589893,0.05582245082896391,0.05737393571000653
1623419885.5106778,-3.4535723819044505e-10,-5.517309915059804e-11,3.23,1.02,1.1690274277498247e-06,-1.0874673534999602e-05,1.402438998222351,0.0,0.0009765625,-7.967299097664219e-07,0.0017768525546041543,-7.918848210849109e-07,0.001700304034589893,0.05582245082896391,0.05737393571000653
1623419885.5106778,-3.4535723819044505e-10,-5.517309915059804e-11,3.23,1.02,1.1690274277498247e-06,-1.0874673534999602e-05,1.402438998222351,0.0,0.0009765625,-7.967299097664219e-07,0.0017768525546041543,-7.918848210849109e-07,0.001700304034589893,0.05582245082896391,0.05737393571000653
1623419885.5106778,-3.4535723819044505e-10,-5.517309915059804e-11,3.23,1.02,1.1690274277498247e-06,-1.0874673534999602e-05,1.402438998222351,0.0,0.0009765625,-7.97049382541153e-07,0.0018150973130824505,-7.918848210849109e-07,0.001700304034589893,0.055823464270926874,0.05737393571000653
1623419885.570678,-7.791372233598684e-10,-5.405871143042635e-11,3.23,1.02,1.1690274277498247e-06,-1.0874673534999602e-05,1.402438998222351,0.0,0.0009765625,-7.97049382541153e-07,0.0018150973130824505,-7.927323632403381e-07,0.0016899321464371947,0.055823464270926874,0.05738370090243574
1623419885.570678,-7.791372233598684e-10,-5.405871143042635e-11,3.23,1.02,1.1690274277498247e-06,-1.0874673534999602e-05,1.402438998222351,0.0,0.0009765625,-7.97049382541153e-07,0.0018150973130824505,-7.927323632403381e-07,0.0016899321464371947,0.055823464270926874,0.05738370090243574
1623419885.570678,-7.791372233598684e-10,-5.405871143042635e-11,3.23,1.02,1.1690274277498247e-06,-1.0874673534999602e-05,1.402438998222351,0.0,0.0009765625,-7.97049382541153e-07,0.0018150973130824505,-7.927323632403381e-07,0.0016899321464371947,0.055823464270926874,0.05738370090243574
1623419885.570678,-7.791372233598684e-10,-5.405871143042635e-11,3.23,1.02,1.1690274277498247e-06,-1.0874673534999602e-05,1.402438998222351,0.0,0.0009765625,-7.97049382541153e-07,0.0018150973130824505,-7.927323632403381e-07,0.0016899321464371947,0.055823464270926874,0.05738370090243574
1623419885.570678,-7.791372233598684e-10,-5.405871143042635e-11,3.23,1.02,1.1690274277498247e-06,-1.0874673534999602e-05,1.402438998222351,0.0,0.0009765625,-7.967572949984184e-07,0.0017007925316315168,-7.927323632403381e-07,0.0016899321464371947,0.055819358253991605,0.05738370090243574
1623419885.630678,-1.1201320094715985e-09,-5.286237702141636e-11,3.23,1.02,1.1690274277498247e-06,-1.0874673534999602e-05,1.402438998222351,0.0,0.0009765625,-7.967572949984184e-07,0.0017007925316315168,-7.934299963056914e-07,0.0016244024443481323,0.055819358253991605,0.057387606762494776
1623419885.630678,-1.1201320094715985e-09,-5.286237702141636e-11,3.23,1.02,1.1690274277498247e-06,-1.0874673534999602e-05,1.402438998222351,-0.005859375,0.00390625,-7.967572949984184e-07,0.0017007925316315168,-7.934299963056914e-07,0.0016244024443481323,0.055819358253991605,0.057387606762494776
1623419885.630678,-1.1201320094715985e-09,-5.286237702141636e-11,3.23,1.02,1.1690274277498247e-06,-1.0874673534999602e-05,1.402438998222351,-0.005859375,0.00390625,-7.967572949984184e-07,0.0017007925316315168,-7.934299963056914e-07,0.0016244024443481323,0.055819358253991605,0.057387606762494776
1623419885.630678,-1.1201320094715985e-09,-5.286237702141636e-11,3.23,1.02,1.1690274277498247e-06,-1.0874673534999602e-05,1.402438998222351,-0.005859375,0.00390625,-7.967572949984184e-07,0.0017007925316315168,-7.934299963056914e-07,0.0016244024443481323,0.055819358253991605,0.057387606762494776
1623419885.630678,-1.1201320094715985e-09,-5.286237702141636e-11,3.23,1.02,1.1690274277498247e-06,-1.0874673534999602e-05,1.402438998222351,-0.005859375,0.00390625,-7.728546169364164e-07,0.001795116867467796,-7.934299963056914e-07,0.0016244024443481323,0.0558765688748141,0.057387606762494776
1623419885.660678,4.874456440412662e-10,-5.1915420832434114e-11,3.23,1.02,1.1690274277498247e-06,-1.0874673534999602e-05,1.402438998222351,-0.005859375,0.00390625,-7.728546169364164e-07,0.001795116867467796,-7.903969924649898e-07,0.0016608471991084756,0.0558765688748141,0.057386217575929446
1623419885.660678,4.874456440412662e-10,-5.1915420832434114e-11,3.23,1.02,1.1690274277498247e-06,-1.0874673534999602e-05,1.402438998222351,-0.005859375,0.00390625,-7.728546169364164e-07,0.001795116867467796,-7.903969924649898e-07,0.0016608471991084756,0.0558765688748141,0.057386217575929446
1623419885.660678,4.874456440412662e-10,-5.1915420832434114e-11,3.23,1.02,1.1690274277498247e-06,-1.0874673534999602e-05,1.402438998222351,-0.005859375,0.00390625,-7.728546169364164e-07,0.001795116867467796,-7.903969924649898e-07,0.0016608471991084756,0.0558765688748141,0.057386217575929446
1623419885.660678,4.874456440412662e-10,-5.1915420832434114e-11,3.23,1.02,1.1690274277498247e-06,-1.0874673534999602e-05,1.402438998222351,-0.005859375,0.00390625,-7.728546169364164e-07,0.001795116867467796,-7.903969924649898e-07,0.0016608471991084756,0.0558765688748141,0.057386217575929446
1623419885.660678,4.874456440412662e-10,-5.1915420832434114e-11,3.22,1.15,1.1690274277498247e-06,-1.0874673534999602e-05,1.402438998222351,-0.005859375,0.00390625,-7.973205423729407e-07,0.0017364718780745185,-7.903969924649898e-07,0.0016608471991084756,0.05582068376722572,0.057386217575929446
1623419885.690678,-4.4369793911086306e-11,-5.089861830838781e-11,3.22,1.15,1.1690274277498247e-06,-1.0874673534999602e-05,1.402438998222351,-0.005859375,0.00390625,-7.973205423729407e-07,0.0017364718780745185,-7.913953510825847e-07,0.0016354173325595913,0.05582068376722572,0.057347326536045434
1623419885.690678,-4.4369793911086306e-11,-5.089861830838781e-11,3.22,1.15,1.1690274277498247e-06,-1.0874673534999602e-05,1.402438998222351,-0.00732421875,0.0048828125,-7.973205423729407e-07,0.0017364718780745185,-7.913953510825847e-07,0.0016354173325595913,0.05582068376722572,0.057347326536045434
1623419885.690678,-4.4369793911086306e-11,-5.089861830838781e-11,3.22,1.15,1.1690274277498247e-06,-1.0874673534999602e-05,1.402438998222351,-0.00732421875,0.0048828125,-7.973205423729407e-07,0.0017364718780745185,-7.913953510825847e-07,0.0016354173325595913,0.05582068376722572,0.057347326536045434
1623419885.690678,-4.4369793911086306e-11,-5.089861830838781e-11,3.22,1.15,1.1690274277498247e-06,-1.0874673534999602e-05,1.402438998222351,-0.00732421875,0.0048828125,-7.973205423729407e-07,0.0017364718780745185,-7.913953510825847e-07,0.0016354173325595913,0.05582068376722572,0.057347326536045434
1623419885.690678,-4.4369793911086306e-11,-5.089861830838781e-11,3.22,1.15,1.1690274277498247e-06,-1.0874673534999602e-05,1.402438998222351,-0.00732421875,0.0048828125,-7.858561863630928e-07,0.0019288679177245172,-7.913953510825847e-07,0.0016354173325595913,0.055852422875824675,0.057347326536045434
1623419885.764678,4.100949426958697e-10,-4.974996488480823e-11,3.22,1.15,1.1690274277498247e-06,-1.0874673534999602e-05,1.402438998222351,-0.00732421875,0.0048828125,-7.858561863630928e-07,0.0019288679177245172,-7.913953510825847e-07,0.0016354173325595913,0.055852422875824675,0.057347326536045434
1623419885.764678,4.100949426958697e-10,-4.974996488480823e-11,3.22,1.15,1.1834597444249084e-06,-1.1008928595401812e-05,1.402438998222351,-0.00732421875,0.0048828125,-7.858561863630928e-07,0.0019288679177245172,-7.905325060777684e-07,0.0017230644545138743,0.055852422875824675,0.057404000306189015
1623419885.764678,4.100949426958697e-10,-4.974996488480823e-11,3.22,1.15,1.1834597444249084e-06,-1.1008928595401812e-05,1.402438998222351,-0.00732421875,0.0048828125,-7.858561863630928e-07,0.0019288679177245172,-7.905325060777684e-07,0.0017230644545138743,0.055852422875824675,0.057404000306189015
1623419885.764678,4.100949426958697e-10,-4.974996488480823e-11,3.21,1.1,1.1834597444249084e-06,-1.1008928595401812e-05,1.402438998222351,-0.00732421875,0.0048828125,-7.858561863630928e-07,0.0019288679177245172,-7.905325060777684e-07,0.0017230644545138743,0.055852422875824675,0.057404000306189015
1623419885.810678,-1.466619589842385e-10,-4.853771295263616e-11,3.21,1.1,1.1834597444249084e-06,-1.1008928595401812e-05,1.402438998222351,-0.00732421875,0.0048828125,-7.973005962490358e-07,0.001834765276592462,-7.915745502265713e-07,0.0017029954380396598,0.055824280147305616,0.05739001354559544
1623419885.810678,-1.466619589842385e-10,-4.853771295263616e-11,3.21,1.1,1.1834597444249084e-06,-1.1008928595401812e-05,1.402438998222351,-0.00732421875,0.0048828125,-7.973005962490358e-07,0.001834765276592462,-7.915745502265713e-07,0.0017029954380396598,0.055824280147305616,0.05739001354559544
1623419885.810678,-1.466619589842385e-10,-4.853771295263616e-11,3.21,1.1,1.1834597444249084e-06,-1.1008928595401812e-05,1.402438998222351,-0.00732421875,0.0048828125,-7.973005962490358e-07,0.001834765276592462,-7.915745502265713e-07,0.0017029954380396598,0.055824280147305616,0.05739001354559544
1623419885.810678,-1.466619589842385e-10,-4.853771295263616e-11,3.21,1.1,1.154942651737656e-06,-1.0743652637756895e-05,1.2804877758026123,0.0,-0.00341796875,-7.973005962490358e-07,0.001834765276592462,-7.915745502265713e-07,0.0017029954380396598,0.055824280147305616,0.05739001354559544
1623419885.810678,-1.466619589842385e-10,-4.853771295263616e-11,3.21,1.1,1.154942651737656e-06,-1.0743652637756895e-05,1.2804877758026123,0.0,-0.00341796875,-7.973005962490358e-07,0.001834765276592462,-7.915745502265713e-07,0.0017029954380396598,0.055824280147305616,0.05739001354559544
1623419885.870678,-6.089841653693831e-10,-4.726979219131775e-11,3.21,1.1,1.154942651737656e-06,-1.0743652637756895e-05,1.2804877758026123,0.0,-0.00341796875,-7.970825520392161e-07,0.0018737377518797736,-7.915745502265713e-07,0.0017029954380396598,0.0558251621995976,0.05739001354559544
1623419885.870678,-6.089841653693831e-10,-4.726979219131775e-11,3.21,1.1,1.154942651737656e-06,-1.0743652637756895e-05,1.2804877758026123,0.0,-0.00341796875,-7.970825520392161e-07,0.0018737377518797736,-7.924649826410898e-07,0.0017166454094004688,0.0558251621995976,0.05739991869584849
1623419885.870678,-6.089841653693831e-10,-4.726979219131775e-11,3.21,1.1,1.154942651737656e-06,-1.0743652637756895e-05,1.2804877758026123,0.0,-0.00341796875,-7.970825520392161e-07,0.0018737377518797736,-7.924649826410898e-07,0.0017166454094004688,0.0558251621995976,0.05739991869584849
1623419885.870678,-6.089841653693831e-10,-4.726979219131775e-11,3.21,1.1,1.1690274277498247e-06,-1.0874673534999602e-05,1.2804877758026123,0.0,-0.00341796875,-7.970825520392161e-07,0.0018737377518797736,-7.924649826410898e-07,0.0017166454094004688,0.0558251621995976,0.05739991869584849
1623419885.870678,-6.089841653693831e-10,-4.726979219131775e-11,3.2,1.05,1.1690274277498247e-06,-1.0874673534999602e-05,1.2804877758026123,0.0,-0.00341796875,-7.970825520392161e-07,0.0018737377518797736,-7.924649826410898e-07,0.0017166454094004688,0.0558251621995976,0.05739991869584849
1623419885.930678,-9.722273347748258e-10,-4.5967157060830685e-11,3.2,1.05,1.1690274277498247e-06,-1.0874673534999602e-05,1.2804877758026123,0.0,-0.00341796875,-7.967490155536378e-07,0.0017558596272903026,-7.931950896743416e-07,0.0016612698889515063,0.05582154546068452,0.05740437227686245
1623419885.930678,-9.722273347748258e-10,-4.5967157060830685e-11,3.2,1.05,1.1690274277498247e-06,-1.0874673534999602e-05,1.2804877758026123,-0.00439453125,0.0078125,-7.967490155536378e-07,0.0017558596272903026,-7.931950896743416e-07,0.0016612698889515063,0.05582154546068452,0.05740437227686245
1623419885.930678,-9.722273347748258e-10,-4.5967157060830685e-11,3.2,1.05,1.1690274277498247e-06,-1.0874673534999602e-05,1.2804877758026123,-0.00439453125,0.0078125,-7.967490155536378e-07,0.0017558596272903026,-7.931950896743416e-07,0.0016612698889515063,0.05582154546068452,0.05740437227686245
1623419885.930678,-9.722273347748258e-10,-4.5967157060830685e-11,3.2,1.05,1.1690274277498247e-06,-1.0874673534999602e-05,1.2804877758026123,-0.00439453125,0.0078125,-7.967490155536378e-07,0.0017558596272903026,-7.931950896743416e-07,0.0016612698889515063,0.05582154546068452,0.05740437227686245
1623419885.930678,-9.722273347748258e-10,-4.5967157060830685e-11,3.2,1.05,1.1690274277498247e-06,-1.0874673534999602e-05,1.2804877758026123,-0.00439453125,0.0078125,-7.967490155536378e-07,0.0017558596272903026,-7.931950896743416e-07,0.0016612698889515063,0.05582154546068452,0.05740437227686245
1623419885.952678,1.0192632337464249e-10,-4.4956562371391376e-11,3.2,1.05,1.1834597444249084e-06,-1.1008928595401812e-05,1.2804877758026123,-0.00439453125,0.0078125,-7.79220465315068e-07,0.0016213058557942022,-7.911671862266367e-07,0.001611289751409138,0.05585478067818547,0.057377907857374545
1623419885.952678,1.0192632337464249e-10,-4.4956562371391376e-11,3.2,1.05,1.1834597444249084e-06,-1.1008928595401812e-05,1.2804877758026123,-0.00439453125,0.0078125,-7.79220465315068e-07,0.0016213058557942022,-7.911671862266367e-07,0.001611289751409138,0.05585478067818547,0.057377907857374545
1623419885.952678,1.0192632337464249e-10,-4.4956562371391376e-11,3.2,1.05,1.1834597444249084e-06,-1.1008928595401812e-05,1.2804877758026123,-0.00439453125,0.0078125,-7.79220465315068e-07,0.0016213058557942022,-7.911671862266367e-07,0.001611289751409138,0.05585478067818547,0.057377907857374545
1623419885.952678,1.0192632337464249e-10,-4.4956562371391376e-11,3.2,1.05,1.1834597444249084e-06,-1.1008928595401812e-05,1.2804877758026123,-0.00439453125,0.0078125,-7.79220465315068e-07,0.0016213058557942022,-7.911671862266367e-07,0.001611289751409138,0.05585478067818547,0.057377907857374545
1623419885.952678,1.0192632337464249e-10,-4.4956562371391376e-11,3.2,1.05,1.1834597444249084e-06,-1.1008928595401812e-05,1.2804877758026123,-0.00439453125,0.0078125,-7.79220465315068e-07,0.0016213058557942022,-7.911671862266367e-07,0.001611289751409138,0.05585478067818547,0.057377907857374545
1623419885.9906778,-3.649077801291126e-10,-4.387290764823826e-11,3.2,1.02,1.154942651737656e-06,-1.0743652637756895e-05,1.2804877758026123,-0.00439453125,0.0078125,-7.97233693415763e-07,0.0015555972219112504,-7.920523359289811e-07,0.0015435960300846801,0.05581424424711171,0.05734697369446284
1623419885.9906778,-3.649077801291126e-10,-4.387290764823826e-11,3.2,1.02,1.154942651737656e-06,-1.0743652637756895e-05,1.402438998222351,-0.00537109375,0.009765625,-7.97233693415763e-07,0.0015555972219112504,-7.920523359289811e-07,0.0015435960300846801,0.05581424424711171,0.05734697369446284
1623419885.9906778,-3.649077801291126e-10,-4.387290764823826e-11,3.2,1.02,1.154942651737656e-06,-1.0743652637756895e-05,1.402438998222351,-0.00537109375,0.009765625,-7.97233693415763e-07,0.0015555972219112504,-7.920523359289811e-07,0.0015435960300846801,0.05581424424711171,0.05734697369446284
1623419885.9906778,-3.649077801291126e-10,-4.387290764823826e-11,3.2,1.02,1.154942651737656e-06,-1.0743652637756895e-05,1.402438998222351,-0.00537109375,0.009765625,-7.97233693415763e-07,0.0015555972219112504,-7.920523359289811e-07,0.0015435960300846801,0.05581424424711171,0.05734697369446284
1623419885.9906778,-3.649077801291126e-10,-4.387290764823826e-11,3.2,1.02,1.154942651737656e-06,-1.0743652637756895e-05,1.402438998222351,-0.00537109375,0.009765625,-7.97233693415763e-07,0.0015555972219112504,-7.920523359289811e-07,0.0015435960300846801,0.05581424424711171,0.05734697369446284
1623419886.0566778,-3.7041494328795013e-10,-4.2718768581201754e-11,3.2,1.02,1.154942651737656e-06,-1.0743652637756895e-05,1.402438998222351,-0.00537109375,0.009765625,-7.921443329312536e-07,0.001647059121795174,-7.92086901816576e-07,0.0015428690901795213,0.05582460370636002,0.05736937417671717
1623419886.0566778,-3.7041494328795013e-10,-4.2718768581201754e-11,3.2,1.02,1.1690274277498247e-06,-1.0874673534999602e-05,1.402438998222351,-0.00537109375,0.009765625,-7.921443329312536e-07,0.001647059121795174,-7.92086901816576e-07,0.0015428690901795213,0.05582460370636002,0.05736937417671717
1623419886.0566778,-3.7041494328795013e-10,-4.2718768581201754e-11,3.2,1.02,1.1690274277498247e-06,-1.0874673534999602e-05,1.402438998222351,-0.00537109375,0.009765625,-7.921443329312536e-07,0.001647059121795174,-7.92086901816576e-07,0.0015428690901795213,0.05582460370636002,0.05736937417671717
1623419886.0566778,-3.7041494328795013e-10,-4.2718768581201754e-11,3.2,1.02,1.1690274277498247e-06,-1.0874673534999602e-05,1.402438998222351,-0.00537109375,0.009765625,-7.921443329312536e-07,0.001647059121795174,-7.92086901816576e-07,0.0015428690901795213,0.05582460370636002,0.05736937417671717
1623419886.0566778,-3.7041494328795013e-10,-4.2718768581201754e-11,3.2,1.02,1.1690274277498247e-06,-1.0874673534999602e-05,1.402438998222351,-0.00537109375,0.009765625,-7.921443329312536e-07,0.001647059121795174,-7.92086901816576e-07,0.0015428690901795213,0.05582460370636002,0.05736937417671717
1623419886.110678,-7.674409783550268e-10,-4.154401676027935e-11,3.2,1.02,1.1690274277498247e-06,-1.0874673534999602e-05,1.402438998222351,-0.00537109375,0.009765625,-7.969157221491184e-07,0.0015536438354029198,-7.928629661584615e-07,0.001487534808988196,0.05581190409851098,0.05735905762216493
1623419886.110678,-7.674409783550268e-10,-4.154401676027935e-11,3.2,1.02,1.1690274277498247e-06,-1.0874673534999602e-05,1.402438998222351,-0.00537109375,0.009765625,-7.969157221491184e-07,0.0015536438354029198,-7.928629661584615e-07,0.001487534808988196,0.05581190409851098,0.05735905762216493
1623419886.110678,-7.674409783550268e-10,-4.154401676027935e-11,3.2,1.02,1.1690274277498247e-06,-1.0874673534999602e-05,1.402438998222351,-0.00537109375,0.009765625,-7.969157221491184e-07,0.0015536438354029198,-7.928629661584615e-07,0.001487534808988196,0.05581190409851098,0.05735905762216493
1623419886.110678,-7.674409783550268e-10,-4.154401676027935e-11,3.2,1.02,1.1690274277498247e-06,-1.0874673534999602e-05,1.3414634466171265,-0.0048828125,0.01025390625,-7.969157221491184e-07,0.0015536438354029198,-7.928629661584615e-07,0.001487534808988196,0.05581190409851098,0.05735905762216493
1623419886.110678,-7.674409783550268e-10,-4.154401676027935e-11,3.2,1.02,1.1690274277498247e-06,-1.0874673534999602e-05,1.3414634466171265,-0.0048828125,0.01025390625,-7.969157221491184e-07,0.0015536438354029198,-7.928629661584615e-07,0.001487534808988196,0.05581190409851098,0.05735905762216493
1623419886.170678,-1.1206834198316893e-09,-4.035223746899204e-11,3.2,1.02,1.1690274277498247e-06,-1.0874673534999602e-05,1.3414634466171265,-0.0048828125,0.01025390625,-7.970910048863183e-07,0.001732393421831479,-7.935823976858447e-07,0.0015331180652273365,0.05581731905982274,0.057360984780997895
1623419886.170678,-1.1206834198316893e-09,-4.035223746899204e-11,3.2,1.02,1.1690274277498247e-06,-1.0874673534999602e-05,1.3414634466171265,-0.0048828125,0.01025390625,-7.970910048863183e-07,0.001732393421831479,-7.935823976858447e-07,0.0015331180652273365,0.05581731905982274,0.057360984780997895
1623419886.170678,-1.1206834198316893e-09,-4.035223746899204e-11,3.2,1.02,1.1690274277498247e-06,-1.0874673534999602e-05,1.3414634466171265,-0.0048828125,0.01025390625,-7.970910048863183e-07,0.001732393421831479,-7.935823976858447e-07,0.0015331180652273365,0.05581731905982274,0.057360984780997895
1623419886.170678,-1.1206834198316893e-09,-4.035223746899204e-11,3.2,1.02,1.1690274277498247e-06,-1.0874673534999602e-05,1.3414634466171265,-0.0048828125,0.01025390625,-7.970910048863183e-07,0.001732393421831479,-7.935823976858447e-07,0.0015331180652273365,0.05581731905982274,0.057360984780997895
1623419886.170678,-1.1206834198316893e-09,-4.035223746899204e-11,3.19,1.01,1.1690274277498247e-06,-1.0874673534999602e-05,1.3414634466171265,-0.0048828125,0.01025390625,-7.970910048863183e-07,0.001732393421831479,-7.935823976858447e-07,0.0015331180652273365,0.05581731905982274,0.057360984780997895
1623419886.2306778,-1.3898347749968257e-09,-3.9170907991217196e-11,3.19,1.01,1.1690274277498247e-06,-1.0874673534999602e-05,1.3414634466171265,-0.0048828125,0.01025390625,-7.967861844157056e-07,0.0016233043098912402,-7.941634648352782e-07,0.001496486351535834,0.05581462973764137,0.0573588086246385
1623419886.2306778,-1.3898347749968257e-09,-3.9170907991217196e-11,3.19,1.01,1.1690274277498247e-06,-1.0874673534999602e-05,1.3414634466171265,-0.0048828125,0.01025390625,-7.967861844157056e-07,0.0016233043098912402,-7.941634648352782e-07,0.001496486351535834,0.05581462973764137,0.0573588086246385
1623419886.2306778,-1.3898347749968257e-09,-3.9170907991217196e-11,3.19,1.01,1.1690274277498247e-06,-1.0874673534999602e-05,1.2195122241973877,-0.009765625,0.01123046875,-7.967861844157056e-07,0.0016233043098912402,-7.941634648352782e-07,0.001496486351535834,0.05581462973764137,0.0573588086246385
1623419886.2306778,-1.3898347749968257e-09,-3.9170907991217196e-11,3.19,1.01,1.1690274277498247e-06,-1.0874673534999602e-05,1.2195122241973877,-0.009765625,0.01123046875,-7.967861844157056e-07,0.0016233043098912402,-7.941634648352782e-07,0.001496486351535834,0.05581462973764137,0.0573588086246385
1623419886.2306778,-1.3898347749968257e-09,-3.9170907991217196e-11,3.19,1.01,1.1834597444249084e-06,-1.1008928595401812e-05,1.2195122241973877,-0.009765625,0.01123046875,-7.967861844157056e-07,0.0016233043098912402,-7.941634648352782e-07,0.001496486351535834,0.05581462973764137,0.0573588086246385
1623419886.264678,5.37399260791699e-10,-3.8251987538541005e-11,3.19,1.01,1.1834597444249084e-06,-1.1008928595401812e-05,1.2195122241973877,-0.009765625,0.01123046875,-7.696953515973256e-07,0.0017578562826262808,-7.905332043763502e-07,0.0015721051131044994,0.05587857687489903,0.057365537896475034
1623419886.264678,5.37399260791699e-10,-3.8251987538541005e-11,3.19,1.01,1.1834597444249084e-06,-1.1008928595401812e-05,1.2195122241973877,-0.009765625,0.01123046875,-7.696953515973256e-07,0.0017578562826262808,-7.905332043763502e-07,0.0015721051131044994,0.05587857687489903,0.057365537896475034
1623419886.264678,5.37399260791699e-10,-3.8251987538541005e-11,3.19,1.01,1.1834597444249084e-06,-1.1008928595401812e-05,1.2195122241973877,-0.009765625,0.01123046875,-7.696953515973256e-07,0.0017578562826262808,-7.905332043763502e-07,0.0015721051131044994,0.05587857687489903,0.057365537896475034
1623419886.264678,5.37399260791699e-10,-3.8251987538541005e-11,3.19,1.01,1.1834597444249084e-06,-1.1008928595401812e-05,1.2195122241973877,-0.009765625,0.01123046875,-7.696953515973256e-07,0.0017578562826262808,-7.905332043763502e-07,0.0015721051131044994,0.05587857687489903,0.057365537896475034
1623419886.264678,5.37399260791699e-10,-3.8251987538541005e-11,3.2,1.01,1.1834597444249084e-06,-1.1008928595401812e-05,1.2195122241973877,-0.009765625,0.01123046875,-7.696953515973256e-07,0.0017578562826262808,-7.905332043763502e-07,0.0015721051131044994,0.05587857687489903,0.057365537896475034
1623419886.290678,1.647967268567662e-11,-3.731814921929264e-11,3.2,1.01,1.1690274277498247e-06,-1.0874673534999602e-05,1.2195122241973877,-0.009765625,0.01123046875,-7.973281603820945e-07,0.0017075093089736833,-7.915119112513062e-07,0.0015668095024097474,0.0558181838321389,0.05732013292786754
1623419886.290678,1.647967268567662e-11,-3.731814921929264e-11,3.2,1.01,1.1690274277498247e-06,-1.0874673534999602e-05,1.2195122241973877,-0.009765625,0.01123046875,-7.973281603820945e-07,0.0017075093089736833,-7.915119112513062e-07,0.0015668095024097474,0.0558181838321389,0.05732013292786754
1623419886.290678,1.647967268567662e-11,-3.731814921929264e-11,3.2,1.01,1.1690274277498247e-06,-1.0874673534999602e-05,1.3414634466171265,0.001953125,0.005859375,-7.973281603820945e-07,0.0017075093089736833,-7.915119112513062e-07,0.0015668095024097474,0.0558181838321389,0.05732013292786754
1623419886.290678,1.647967268567662e-11,-3.731814921929264e-11,3.2,1.01,1.1690274277498247e-06,-1.0874673534999602e-05,1.3414634466171265,0.001953125,0.005859375,-7.973281603820945e-07,0.0017075093089736833,-7.915119112513062e-07,0.0015668095024097474,0.0558181838321389,0.05732013292786754
1623419886.290678,1.647967268567662e-11,-3.731814921929264e-11,3.2,1.01,1.1690274277498247e-06,-1.0874673534999602e-05,1.3414634466171265,0.001953125,0.005859375,-7.973281603820945e-07,0.0017075093089736833,-7.915119112513062e-07,0.0015668095024097474,0.0558181838321389,0.05732013292786754
1623419886.3686779,7.446815313530945e-10,-3.630947226591481e-11,3.2,1.01,1.1690274277498247e-06,-1.0874673534999602e-05,1.3414634466171265,0.001953125,0.005859375,-7.826729800446923e-07,0.001956516903437047,-7.901216634641265e-07,0.001701872277252577,0.05586021921379184,0.05738583243123074
1623419886.3686779,7.446815313530945e-10,-3.630947226591481e-11,3.2,1.01,1.1690274277498247e-06,-1.0874673534999602e-05,1.3414634466171265,0.001953125,0.005859375,-7.826729800446923e-07,0.001956516903437047,-7.901216634641265e-07,0.001701872277252577,0.05586021921379184,0.05738583243123074
1623419886.3686779,7.446815313530945e-10,-3.630947226591481e-11,3.2,1.01,1.1690274277498247e-06,-1.0874673534999602e-05,1.3414634466171265,0.001953125,0.005859375,-7.826729800446923e-07,0.001956516903437047,-7.901216634641265e-07,0.001701872277252577,0.05586021921379184,0.05738583243123074
1623419886.3686779,7.446815313530945e-10,-3.630947226591481e-11,3.2,1.01,1.1690274277498247e-06,-1.0874673534999602e-05,1.3414634466171265,0.001953125,0.005859375,-7.826729800446923e-07,0.001956516903437047,-7.901216634641265e-07,0.001701872277252577,0.05586021921379184,0.05738583243123074
1623419886.3686779,7.446815313530945e-10,-3.630947226591481e-11,3.19,1.0,1.1690274277498247e-06,-1.0874673534999602e-05,1.3414634466171265,0.001953125,0.005859375,-7.826729800446923e-07,0.001956516903437047,-7.901216634641265e-07,0.001701872277252577,0.05586021921379184,0.05738583243123074
1623419886.410678,1.462242576177001e-10,-3.525759684643467e-11,3.19,1.0,1.1690274277498247e-06,-1.0874673534999602e-05,1.3414634466171265,0.001953125,0.005859375,-7.974117251594497e-07,0.0018689468017726292,-7.912314886842e-07,0.00170348544662213,0.05582509978127727,0.05736624752328669
1623419886.410678,1.462242576177001e-10,-3.525759684643467e-11,3.19,1.0,1.1690274277498247e-06,-1.0874673534999602e-05,1.2804877758026123,-0.0048828125,0.0078125,-7.974117251594497e-07,0.0018689468017726292,-7.912314886842e-07,0.00170348544662213,0.05582509978127727,0.05736624752328669
1623419886.410678,1.462242576177001e-10,-3.525759684643467e-11,3.19,1.0,1.1690274277498247e-06,-1.0874673534999602e-05,1.2804877758026123,-0.0048828125,0.0078125,-7.974117251594497e-07,0.0018689468017726292,-7.912314886842e-07,0.00170348544662213,0.05582509978127727,0.05736624752328669
1623419886.410678,1.462242576177001e-10,-3.525759684643467e-11,3.19,1.0,1.1690274277498247e-06,-1.0874673534999602e-05,1.2804877758026123,-0.0048828125,0.0078125,-7.974117251594497e-07,0.0018689468017726292,-7.912314886842e-07,0.00170348544662213,0.05582509978127727,0.05736624752328669
1623419886.410678,1.462242576177001e-10,-3.525759684643467e-11,3.19,1.0,1.1690274277498247e-06,-1.0874673534999602e-05,1.2804877758026123,-0.0048828125,0.0078125,-7.974117251594497e-07,0.0018689468017726292,-7.912314886842e-07,0.00170348544662213,0.05582509978127727,0.05736624752328669
1623419886.4706779,-4.0555667908729764e-10,-3.410583052531798e-11,3.19,1.0,1.1690274277498247e-06,-1.0874673534999602e-05,1.2804877758026123,-0.0048828125,0.0078125,-7.97801266386623e-07,0.0019295684879154546,-7.92275407081179e-07,0.0017444071733264115,0.05582823934859172,0.05737888099329017
1623419886.4706779,-4.0555667908729764e-10,-3.410583052531798e-11,3.19,1.0,1.1690274277498247e-06,-1.0874673534999602e-05,1.2804877758026123,-0.0048828125,0.0078125,-7.97801266386623e-07,0.0019295684879154546,-7.92275407081179e-07,0.0017444071733264115,0.05582823934859172,0.05737888099329017
1623419886.4706779,-4.0555667908729764e-10,-3.410583052531798e-11,3.19,1.0,1.1690274277498247e-06,-1.0874673534999602e-05,1.2804877758026123,-0.0048828125,0.0078125,-7.97801266386623e-07,0.0019295684879154546,-7.92275407081179e-07,0.0017444071733264115,0.05582823934859172,0.05737888099329017
1623419886.4706779,-4.0555667908729764e-10,-3.410583052531798e-11,3.19,1.0,1.1690274277498247e-06,-1.0874673534999602e-05,1.2804877758026123,-0.0048828125,0.0078125,-7.97801266386623e-07,0.0019295684879154546,-7.92275407081179e-07,0.0017444071733264115,0.05582823934859172,0.05737888099329017
1623419886.4706779,-4.0555667908729764e-10,-3.410583052531798e-11,3.2,1.0,1.1690274277498247e-06,-1.0874673534999602e-05,1.2804877758026123,-0.0048828125,0.0078125,-7.97801266386623e-07,0.0019295684879154546,-7.92275407081179e-07,0.0017444071733264115,0.05582823934859172,0.05737888099329017
1623419886.5306778,-8.436228735830931e-10,-3.292158213382756e-11,3.2,1.0,1.1690274277498247e-06,-1.0874673534999602e-05,1.2804877758026123,-0.0048828125,0.0078125,-7.974301689865282e-07,0.0018082920535421993,-7.931364224150064e-07,0.0017006661728465678,0.055824274703732864,0.057386624739741744
1623419886.5306778,-8.436228735830931e-10,-3.292158213382756e-11,3.2,1.0,1.1690274277498247e-06,-1.0874673534999602e-05,1.2195122241973877,-0.00390625,0.0068359375,-7.974301689865282e-07,0.0018082920535421993,-7.931364224150064e-07,0.0017006661728465678,0.055824274703732864,0.057386624739741744
1623419886.5306778,-8.436228735830931e-10,-3.292158213382756e-11,3.2,1.0,1.1690274277498247e-06,-1.0874673534999602e-05,1.2195122241973877,-0.00390625,0.0068359375,-7.974301689865282e-07,0.0018082920535421993,-7.931364224150064e-07,0.0017006661728465678,0.055824274703732864,0.057386624739741744
1623419886.5306778,-8.436228735830931e-10,-3.292158213382756e-11,3.2,1.0,1.1690274277498247e-06,-1.0874673534999602e-05,1.2195122241973877,-0.00390625,0.0068359375,-7.974301689865282e-07,0.0018082920535421993,-7.931364224150064e-07,0.0017006661728465678,0.055824274703732864,0.057386624739741744
1623419886.5306778,-8.436228735830931e-10,-3.292158213382756e-11,3.2,1.0,1.1834597444249084e-06,-1.1008928595401812e-05,1.2195122241973877,-0.00390625,0.0068359375,-7.974301689865282e-07,0.0018082920535421993,-7.931364224150064e-07,0.0017006661728465678,0.055824274703732864,0.057386624739741744
1623419886.5566778,4.2737080863592626e-10,-3.2030679158178565e-11,3.2,1.0,1.1834597444249084e-06,-1.1008928595401812e-05,1.2195122241973877,-0.00390625,0.0068359375,-7.766969933067385e-07,0.001979581327061562,-7.907328405786615e-07,0.0017799487752955764,0.055880977743679366,0.05738070937991737
1623419886.5566778,4.2737080863592626e-10,-3.2030679158178565e-11,3.2,1.0,1.1834597444249084e-06,-1.1008928595401812e-05,1.2195122241973877,-0.00390625,0.0068359375,-7.766969933067385e-07,0.001979581327061562,-7.907328405786615e-07,0.0017799487752955764,0.055880977743679366,0.05738070937991737
1623419886.5566778,4.2737080863592626e-10,-3.2030679158178565e-11,3.2,1.0,1.1834597444249084e-06,-1.1008928595401812e-05,1.2195122241973877,-0.00390625,0.0068359375,-7.766969933067385e-07,0.001979581327061562,-7.907328405786615e-07,0.0017799487752955764,0.055880977743679366,0.05738070937991737
1623419886.5566778,4.2737080863592626e-10,-3.2030679158178565e-11,3.2,1.0,1.1834597444249084e-06,-1.1008928595401812e-05,1.2195122241973877,-0.00390625,0.0068359375,-7.766969933067385e-07,0.001979581327061562,-7.907328405786615e-07,0.0017799487752955764,0.055880977743679366,0.05738070937991737
1623419886.5566778,4.2737080863592626e-10,-3.2030679158178565e-11,3.2,0.99,1.1834597444249084e-06,-1.1008928595401812e-05,1.2195122241973877,-0.00390625,0.0068359375,-7.978837421619639e-07,0.0019071490765276875,-7.907328405786615e-07,0.0017799487752955764,0.05582820400032272,0.05738070937991737
1623419886.590678,-1.2186819569681564e-10,-3.105315471807333e-11,3.2,0.99,1.1690274277498247e-06,-1.0874673534999602e-05,1.2195122241973877,-0.00390625,0.0068359375,-7.978837421619639e-07,0.0019071490765276875,-7.917646380761715e-07,0.0017731347191482871,0.05582820400032272,0.05735309001672024
1623419886.590678,-1.2186819569681564e-10,-3.105315471807333e-11,3.2,0.99,1.1690274277498247e-06,-1.0874673534999602e-05,1.2195122241973877,-0.00390625,0.0068359375,-7.978837421619639e-07,0.0019071490765276875,-7.917646380761715e-07,0.0017731347191482871,0.05582820400032272,0.05735309001672024
1623419886.590678,-1.2186819569681564e-10,-3.105315471807333e-11,3.2,0.99,1.1690274277498247e-06,-1.0874673534999602e-05,1.402438998222351,-0.00830078125,0.0087890625,-7.978837421619639e-07,0.0019071490765276875,-7.917646380761715e-07,0.0017731347191482871,0.05582820400032272,0.05735309001672024
1623419886.590678,-1.2186819569681564e-10,-3.105315471807333e-11,3.2,0.99,1.1690274277498247e-06,-1.0874673534999602e-05,1.402438998222351,-0.00830078125,0.0087890625,-7.978837421619639e-07,0.0019071490765276875,-7.917646380761715e-07,0.0017731347191482871,0.05582820400032272,0.05735309001672024
1623419886.590678,-1.2186819569681564e-10,-3.105315471807333e-11,3.2,0.99,1.1690274277498247e-06,-1.0874673534999602e-05,1.402438998222351,-0.00830078125,0.0087890625,-7.895124594411853e-07,0.001978757281626868,-7.917646380761715e-07,0.0017731347191482871,0.055849561302244166,0.05735309001672024
1623419886.660678,6.233448370108226e-11,-2.999295662066441e-11,3.2,0.99,1.1690274277498247e-06,-1.0874673534999602e-05,1.402438998222351,-0.00830078125,0.0087890625,-7.895124594411853e-07,0.001978757281626868,-7.914222414351892e-07,0.001818907743387947,0.055849561302244166,0.05740493336160936
1623419886.660678,6.233448370108226e-11,-2.999295662066441e-11,3.2,0.99,1.1690274277498247e-06,-1.0874673534999602e-05,1.402438998222351,-0.00830078125,0.0087890625,-7.895124594411853e-07,0.001978757281626868,-7.914222414351892e-07,0.001818907743387947,0.055849561302244166,0.05740493336160936
1623419886.660678,6.233448370108226e-11,-2.999295662066441e-11,3.2,0.99,1.1690274277498247e-06,-1.0874673534999602e-05,1.402438998222351,-0.00830078125,0.0087890625,-7.895124594411853e-07,0.001978757281626868,-7.914222414351892e-07,0.001818907743387947,0.055849561302244166,0.05740493336160936
1623419886.660678,6.233448370108226e-11,-2.999295662066441e-11,3.2,0.99,1.1690274277498247e-06,-1.0874673534999602e-05,1.402438998222351,-0.00830078125,0.0087890625,-7.895124594411853e-07,0.001978757281626868,-7.914222414351892e-07,0.001818907743387947,0.055849561302244166,0.05740493336160936
1623419886.660678,6.233448370108226e-11,-2.999295662066441e-11,3.29,0.96,1.1690274277498247e-06,-1.0874673534999602e-05,1.402438998222351,-0.00830078125,0.0087890625,-7.895124594411853e-07,0.001978757281626868,-7.914222414351892e-07,0.001818907743387947,0.055849561302244166,0.05740493336160936
1623419886.7106779,-4.4243529219430676e-10,-2.887830192215968e-11,3.29,0.96,1.1690274277498247e-06,-1.0874673534999602e-05,1.402438998222351,-0.00830078125,0.0087890625,-7.975573518078764e-07,0.0018742956409056276,-7.914222414351892e-07,0.001818907743387947,0.055827115475962315,0.05740493336160936
1623419886.7106779,-4.4243529219430676e-10,-2.887830192215968e-11,3.29,0.96,1.1690274277498247e-06,-1.0874673534999602e-05,1.402438998222351,-0.00830078125,0.0087890625,-7.975573518078764e-07,0.0018742956409056276,-7.914222414351892e-07,0.001818907743387947,0.055827115475962315,0.05740493336160936
1623419886.7106779,-4.4243529219430676e-10,-2.887830192215968e-11,3.29,0.96,1.1834597444249084e-06,-1.1008928595401812e-05,1.2804877758026123,-0.00048828125,0.0,-7.975573518078764e-07,0.0018742956409056276,-7.914222414351892e-07,0.001818907743387947,0.055827115475962315,0.05740493336160936
1623419886.7106779,-4.4243529219430676e-10,-2.887830192215968e-11,3.29,0.96,1.1834597444249084e-06,-1.1008928595401812e-05,1.2804877758026123,-0.00048828125,0.0,-7.975573518078764e-07,0.0018742956409056276,-7.923807155904206e-07,0.0017780598503429482,0.055827115475962315,0.057400652837020526
1623419886.7106779,-4.4243529219430676e-10,-2.887830192215968e-11,3.29,0.96,1.1834597444249084e-06,-1.1008928595401812e-05,1.2804877758026123,-0.00048828125,0.0,-7.974778248292008e-07,0.0020082809168545674,-7.923807155904206e-07,0.0017780598503429482,0.05583083153540835,0.057400652837020526
1623419886.7706778,-8.695001977646325e-10,-2.7731871889497833e-11,3.29,0.96,1.1834597444249084e-06,-1.1008928595401812e-05,1.2804877758026123,-0.00048828125,0.0,-7.974778248292008e-07,0.0020082809168545674,-7.923807155904206e-07,0.0017780598503429482,0.05583083153540835,0.057400652837020526
1623419886.7706778,-8.695001977646325e-10,-2.7731871889497833e-11,3.29,0.96,1.1834597444249084e-06,-1.1008928595401812e-05,1.2804877758026123,-0.00048828125,0.0,-7.974778248292008e-07,0.0020082809168545674,-7.923807155904206e-07,0.0017780598503429482,0.05583083153540835,0.057400652837020526
1623419886.7706778,-8.695001977646325e-10,-2.7731871889497833e-11,3.29,0.96,1.1834597444249084e-06,-1.1008928595401812e-05,1.2804877758026123,-0.00048828125,0.0,-7.974778248292008e-07,0.0020082809168545674,-7.923807155904206e-07,0.0017780598503429482,0.05583083153540835,0.057400652837020526
1623419886.7706778,-8.695001977646325e-10,-2.7731871889497833e-11,3.29,0.96,1.154942651737656e-06,-1.0743652637756895e-05,1.2804877758026123,-0.00048828125,0.0,-7.974778248292008e-07,0.0020082809168545674,-7.923807155904206e-07,0.0017780598503429482,0.05583083153540835,0.057400652837020526
1623419886.7706778,-8.695001977646325e-10,-2.7731871889497833e-11,3.27,0.96,1.154942651737656e-06,-1.0743652637756895e-05,1.2804877758026123,-0.00048828125,0.0,-7.974778248292008e-07,0.0020082809168545674,-7.932215228769096e-07,0.0018161063191100071,0.05583083153540835,0.05741608667713263
1623419886.7706778,-1.1783818601390081e-09,-2.6911598489811758e-11,3.27,0.96,1.154942651737656e-06,-1.0743652637756895e-05,1.2804877758026123,-0.00048828125,0.0,-7.974778248292008e-07,0.0020082809168545674,-7.932215228769096e-07,0.0018161063191100071,0.05583083153540835,0.05741608667713263
1623419886.7706778,-1.1783818601390081e-09,-2.6911598489811758e-11,3.27,0.96,1.154942651737656e-06,-1.0743652637756895e-05,1.2804877758026123,-0.00048828125,0.0,-7.974778248292008e-07,0.0020082809168545674,-7.932215228769096e-07,0.0018161063191100071,0.05583083153540835,0.05741608667713263
1623419886.7706778,-1.1783818601390081e-09,-2.6911598489811758e-11,3.27,0.96,1.154942651737656e-06,-1.0743652637756895e-05,1.3414634466171265,0.0,0.00244140625,-7.974778248292008e-07,0.0020082809168545674,-7.932215228769096e-07,0.0018161063191100071,0.05583083153540835,0.05741608667713263
1623419886.7706778,-1.1783818601390081e-09,-2.6911598489811758e-11,3.27,0.96,1.154942651737656e-06,-1.0743652637756895e-05,1.3414634466171265,0.0,0.00244140625,-7.974778248292008e-07,0.0020082809168545674,-7.93810449896056e-07,0.0018355245953226506,0.05583083153540835,0.05733332483222638
1623419886.7706778,-1.1783818601390081e-09,-2.6911598489811758e-11,3.27,0.96,1.1690274277498247e-06,-1.0874673534999602e-05,1.3414634466171265,0.0,0.00244140625,-7.974778248292008e-07,0.0020082809168545674,-7.93810449896056e-07,0.0018355245953226506,0.05583083153540835,0.05733332483222638
1623419886.8686779,1.0476057432426552e-09,-2.593245433034763e-11,3.27,0.96,1.1690274277498247e-06,-1.0874673534999602e-05,1.3414634466171265,0.0,0.00244140625,-7.66804375518404e-07,0.001881258905846458,-7.93810449896056e-07,0.0018355245953226506,0.055900285464332365,0.05733332483222638
1623419886.8686779,1.0476057432426552e-09,-2.593245433034763e-11,3.27,0.96,1.1690274277498247e-06,-1.0874673534999602e-05,1.3414634466171265,0.0,0.00244140625,-7.66804375518404e-07,0.001881258905846458,-7.93810449896056e-07,0.0018355245953226506,0.055900285464332365,0.05733332483222638
1623419886.8686779,1.0476057432426552e-09,-2.593245433034763e-11,3.27,0.96,1.1690274277498247e-06,-1.0874673534999602e-05,1.3414634466171265,0.0,0.00244140625,-7.66804375518404e-07,0.001881258905846458,-7.93810449896056e-07,0.0018355245953226506,0.055900285464332365,0.05733332483222638
1623419886.8686779,1.0476057432426552e-09,-2.593245433034763e-11,3.27,0.96,1.1690274277498247e-06,-1.0874673534999602e-05,1.3414634466171265,0.0,0.00244140625,-7.66804375518404e-07,0.001881258905846458,-7.896740524844949e-07,0.0018281535959697435,0.055900285464332365,0.05746159976213269
1623419886.8686779,1.0476057432426552e-09,-2.593245433034763e-11,3.25,0.97,1.1690274277498247e-06,-1.0874673534999602e-05,1.3414634466171265,0.0,0.00244140625,-7.66804375518404e-07,0.001881258905846458,-7.896740524844949e-07,0.0018281535959697435,0.055900285464332365,0.05746159976213269
1623419886.890678,4.2864733764775394e-10,-2.4946139470339813e-11,3.25,0.97,1.1690274277498247e-06,-1.0874673534999602e-05,1.3414634466171265,0.0,0.00244140625,-7.97531561012269e-07,0.0018348541938654028,-7.896740524844949e-07,0.0018281535959697435,0.0558259100506852,0.05746159976213269
1623419886.890678,4.2864733764775394e-10,-2.4946139470339813e-11,3.25,0.97,1.1690274277498247e-06,-1.0874673534999602e-05,1.2804877758026123,-0.0048828125,0.0,-7.97531561012269e-07,0.0018348541938654028,-7.896740524844949e-07,0.0018281535959697435,0.0558259100506852,0.05746159976213269
1623419886.890678,4.2864733764775394e-10,-2.4946139470339813e-11,3.25,0.97,1.1690274277498247e-06,-1.0874673534999602e-05,1.2804877758026123,-0.0048828125,0.0,-7.97531561012269e-07,0.0018348541938654028,-7.896740524844949e-07,0.0018281535959697435,0.0558259100506852,0.05746159976213269
1623419886.890678,4.2864733764775394e-10,-2.4946139470339813e-11,3.25,0.97,1.1690274277498247e-06,-1.0874673534999602e-05,1.2804877758026123,-0.0048828125,0.0,-7.97531561012269e-07,0.0018348541938654028,-7.908322178809819e-07,0.0017838947203317843,0.0558259100506852,0.05740688109168095
1623419886.890678,4.2864733764775394e-10,-2.4946139470339813e-11,3.25,0.97,1.1690274277498247e-06,-1.0874673534999602e-05,1.2804877758026123,-0.0048828125,0.0,-7.97531561012269e-07,0.0018348541938654028,-7.908322178809819e-07,0.0017838947203317843,0.0558259100506852,0.05740688109168095
1623419886.961693,8.529717282005854e-10,-6.430234833975254e-11,3.25,0.97,1.1690274277498247e-06,-1.0874673534999602e-05,1.2804877758026123,-0.0048828125,0.0,-7.857232678375982e-07,0.0018888100519299364,-7.908322178809819e-07,0.0017838947203317843,0.055832703211221885,0.05740688109168095
1623419886.961693,8.529717282005854e-10,-6.430234833975254e-11,3.25,0.97,1.154942651737656e-06,-1.0743652637756895e-05,1.2804877758026123,-0.0048828125,0.0,-7.857232678375982e-07,0.0018888100519299364,-7.908322178809819e-07,0.0017838947203317843,0.055832703211221885,0.05740688109168095
1623419886.961693,8.529717282005854e-10,-6.430234833975254e-11,3.25,0.97,1.154942651737656e-06,-1.0743652637756895e-05,1.2804877758026123,-0.0048828125,0.0,-7.857232678375982e-07,0.0018888100519299364,-7.89991744316767e-07,0.0017818317087388788,0.055832703211221885,0.05744488232433887
1623419886.961693,8.529717282005854e-10,-6.430234833975254e-11,3.23,0.97,1.154942651737656e-06,-1.0743652637756895e-05,1.2804877758026123,-0.0048828125,0.0,-7.857232678375982e-07,0.0018888100519299364,-7.89991744316767e-07,0.0017818317087388788,0.055832703211221885,0.05744488232433887
1623419886.961693,8.529717282005854e-10,-6.430234833975254e-11,3.23,0.97,1.154942651737656e-06,-1.0743652637756895e-05,1.2804877758026123,-0.0048828125,0.0,-7.855157777393476e-07,0.001774122824220436,-7.89991744316767e-07,0.0017818317087388788,0.05582302259557338,0.05744488232433887
1623419887.019693,1.2290237602146804e-09,-1.1351920033792259e-10,3.23,0.97,1.154942651737656e-06,-1.0743652637756895e-05,1.2804877758026123,-0.00927734375,0.01220703125,-7.855157777393476e-07,0.001774122824220436,-7.89991744316767e-07,0.0017818317087388788,0.05582302259557338,0.05744488232433887
1623419887.019693,1.2290237602146804e-09,-1.1351920033792259e-10,3.23,0.97,1.1834597444249084e-06,-1.1008928595401812e-05,1.2804877758026123,-0.00927734375,0.01220703125,-7.855157777393476e-07,0.001774122824220436,-7.89991744316767e-07,0.0017818317087388788,0.05582302259557338,0.05744488232433887
1623419887.019693,1.2290237602146804e-09,-1.1351920033792259e-10,3.23,0.97,1.1834597444249084e-06,-1.1008928595401812e-05,1.2804877758026123,-0.00927734375,0.01220703125,-7.855157777393476e-07,0.001774122824220436,-7.892239204653055e-07,0.0017157938300583744,0.05582302259557338,0.05744806462301432
1623419887.019693,1.2290237602146804e-09,-1.1351920033792259e-10,3.23,0.97,1.1834597444249084e-06,-1.1008928595401812e-05,1.2804877758026123,-0.00927734375,0.01220703125,-7.855157777393476e-07,0.001774122824220436,-7.892239204653055e-07,0.0017157938300583744,0.05582302259557338,0.05744806462301432
1623419887.019693,1.2290237602146804e-09,-1.1351920033792259e-10,3.23,0.97,1.1834597444249084e-06,-1.1008928595401812e-05,1.2804877758026123,-0.00927734375,0.01220703125,-7.856722210071129e-07,0.0017412334681196334,-7.892239204653055e-07,0.0017157938300583744,0.05582114736740607,0.05744806462301432
1623419887.079693,1.5287487239412464e-09,-1.60351620849994e-10,3.23,0.97,1.1834597444249084e-06,-1.1008928595401812e-05,1.2804877758026123,-0.00927734375,0.01220703125,-7.856722210071129e-07,0.0017412334681196334,-7.892239204653055e-07,0.0017157938300583744,0.05582114736740607,0.05744806462301432
1623419887.079693,1.5287487239412464e-09,-1.60351620849994e-10,3.23,0.97,1.1834597444249084e-06,-1.1008928595401812e-05,1.2804877758026123,-0.00927734375,0.01220703125,-7.856722210071129e-07,0.0017412334681196334,-7.885770016044701e-07,0.0016607447517566327,0.05582114736740607,0.057449876885581334
1623419887.079693,1.5287487239412464e-09,-1.60351620849994e-10,3.23,0.97,1.1834597444249084e-06,-1.1008928595401812e-05,1.2804877758026123,-0.00927734375,0.01220703125,-7.856722210071129e-07,0.0017412334681196334,-7.885770016044701e-07,0.0016607447517566327,0.05582114736740607,0.057449876885581334
1623419887.079693,1.5287487239412464e-09,-1.60351620849994e-10,3.23,0.98,1.1690274277498247e-06,-1.0874673534999602e-05,1.2804877758026123,-0.00927734375,0.01220703125,-7.856722210071129e-07,0.0017412334681196334,-7.885770016044701e-07,0.0016607447517566327,0.05582114736740607,0.057449876885581334
1623419887.139693,1.7405185660983974e-09,-1.9987411662064184e-10,3.23,0.98,1.1690274277498247e-06,-1.0874673534999602e-05,1.2804877758026123,-0.00927734375,0.01220703125,-7.860514030155562e-07,0.001631418285341284,-7.885770016044701e-07,0.0016607447517566327,0.055816493464533413,0.057449876885581334
1623419887.139693,1.7405185660983974e-09,-1.9987411662064184e-10,3.23,0.98,1.1690274277498247e-06,-1.0874673534999602e-05,1.2804877758026123,-0.00927734375,0.01220703125,-7.860514030155562e-07,0.001631418285341284,-7.885770016044701e-07,0.0016607447517566327,0.055816493464533413,0.057449876885581334
1623419887.139693,1.7405185660983974e-09,-1.9987411662064184e-10,3.23,0.98,1.1690274277498247e-06,-1.0874673534999602e-05,1.3414634466171265,-0.00830078125,0.00732421875,-7.860514030155562e-07,0.001631418285341284,-7.885770016044701e-07,0.0016607447517566327,0.055816493464533413,0.057449876885581334
1623419887.139693,1.7405185660983974e-09,-1.9987411662064184e-10,3.23,0.98,1.1690274277498247e-06,-1.0874673534999602e-05,1.3414634466171265,-0.00830078125,0.00732421875,-7.860514030155562e-07,0.001631418285341284,-7.880797784268442e-07,0.0015751245062956224,0.055816493464533413,0.05744507839885816
1623419887.139693,1.7405185660983974e-09,-1.9987411662064184e-10,3.23,0.98,1.1690274277498247e-06,-1.0874673534999602e-05,1.3414634466171265,-0.00830078125,0.00732421875,-7.860514030155562e-07,0.001631418285341284,-7.880797784268442e-07,0.0015751245062956224,0.055816493464533413,0.05744507839885816
1623419887.169693,3.756697889778536e-09,-2.2993873822697807e-10,3.23,0.98,1.1690274277498247e-06,-1.0874673534999602e-05,1.3414634466171265,-0.00830078125,0.00732421875,-7.624699033233758e-07,0.0017378074891589307,-7.880797784268442e-07,0.0015751245062956224,0.05587226414017388,0.05744507839885816
1623419887.169693,3.756697889778536e-09,-2.2993873822697807e-10,3.23,0.98,1.1690274277498247e-06,-1.0874673534999602e-05,1.3414634466171265,-0.00830078125,0.00732421875,-7.624699033233758e-07,0.0017378074891589307,-7.880797784268442e-07,0.0015751245062956224,0.05587226414017388,0.05744507839885816
1623419887.169693,3.756697889778536e-09,-2.2993873822697807e-10,3.23,0.98,1.1690274277498247e-06,-1.0874673534999602e-05,1.3414634466171265,-0.00830078125,0.00732421875,-7.624699033233758e-07,0.0017378074891589307,-7.880797784268442e-07,0.0015751245062956224,0.05587226414017388,0.05744507839885816
1623419887.169693,3.756697889778536e-09,-2.2993873822697807e-10,3.23,0.98,1.1690274277498247e-06,-1.0874673534999602e-05,1.3414634466171265,-0.00830078125,0.00732421875,-7.624699033233758e-07,0.0017378074891589307,-7.841699306569973e-07,0.0016061299385774594,0.05587226414017388,0.05743887067894826
1623419887.169693,3.756697889778536e-09,-2.2993873822697807e-10,3.21,0.97,1.1690274277498247e-06,-1.0874673534999602e-05,1.3414634466171265,-0.00830078125,0.00732421875,-7.624699033233758e-07,0.0017378074891589307,-7.841699306569973e-07,0.0016061299385774594,0.05587226414017388,0.05743887067894826
1623419887.199693,3.4811895410186895e-09,-2.525383105966414e-10,3.21,0.97,1.1690274277498247e-06,-1.0874673534999602e-05,1.3414634466171265,-0.00830078125,0.00732421875,-7.876214869371471e-07,0.001680971950480755,-7.841699306569973e-07,0.0016061299385774594,0.05581806448256677,0.05743887067894826
1623419887.199693,3.4811895410186895e-09,-2.525383105966414e-10,3.21,0.97,1.1690274277498247e-06,-1.0874673534999602e-05,1.3414634466171265,-0.00830078125,0.00732421875,-7.876214869371471e-07,0.001680971950480755,-7.841699306569973e-07,0.0016061299385774594,0.05581806448256677,0.05743887067894826
1623419887.199693,3.4811895410186895e-09,-2.525383105966414e-10,3.21,0.97,1.1690274277498247e-06,-1.0874673534999602e-05,1.3414634466171265,0.00439453125,0.01318359375,-7.876214869371471e-07,0.001680971950480755,-7.845834900633686e-07,0.0015776081150794376,0.05581806448256677,0.057393681950736915
1623419887.199693,3.4811895410186895e-09,-2.525383105966414e-10,3.21,0.97,1.1690274277498247e-06,-1.0874673534999602e-05,1.3414634466171265,0.00439453125,0.01318359375,-7.876214869371471e-07,0.001680971950480755,-7.845834900633686e-07,0.0015776081150794376,0.05581806448256677,0.057393681950736915
1623419887.199693,3.4811895410186895e-09,-2.525383105966414e-10,3.21,0.97,1.1690274277498247e-06,-1.0874673534999602e-05,1.3414634466171265,0.00439453125,0.01318359375,-7.876214869371471e-07,0.001680971950480755,-7.845834900633686e-07,0.0015776081150794376,0.05581806448256677,0.057393681950736915
1623419887.273693,4.054233426497751e-09,-2.6969177719206747e-10,3.21,0.97,1.1690274277498247e-06,-1.0874673534999602e-05,1.3414634466171265,0.00439453125,0.01318359375,-7.773754079665552e-07,0.0017418983538830012,-7.845834900633686e-07,0.0015776081150794376,0.055843456377570634,0.057393681950736915
1623419887.273693,4.054233426497751e-09,-2.6969177719206747e-10,3.21,0.97,1.1690274277498247e-06,-1.0874673534999602e-05,1.3414634466171265,0.00439453125,0.01318359375,-7.773754079665552e-07,0.0017418983538830012,-7.845834900633686e-07,0.0015776081150794376,0.055843456377570634,0.057393681950736915
1623419887.273693,4.054233426497751e-09,-2.6969177719206747e-10,3.21,0.97,1.1690274277498247e-06,-1.0874673534999602e-05,1.3414634466171265,0.00439453125,0.01318359375,-7.773754079665552e-07,0.0017418983538830012,-7.832312368998511e-07,0.0016055838684682598,0.055843456377570634,0.05743891985758061
1623419887.273693,4.054233426497751e-09,-2.6969177719206747e-10,3.21,0.97,1.1690274277498247e-06,-1.0874673534999602e-05,1.3414634466171265,0.00439453125,0.01318359375,-7.773754079665552e-07,0.0017418983538830012,-7.832312368998511e-07,0.0016055838684682598,0.055843456377570634,0.05743891985758061
1623419887.273693,4.054233426497751e-09,-2.6969177719206747e-10,3.21,0.96,1.1690274277498247e-06,-1.0874673534999602e-05,1.3414634466171265,0.00439453125,0.01318359375,-7.773754079665552e-07,0.0017418983538830012,-7.832312368998511e-07,0.0016055838684682598,0.055843456377570634,0.05743891985758061
1623419887.319693,3.5019810603780452e-09,-2.8025135590190927e-10,3.21,0.96,1.1690274277498247e-06,-1.0874673534999602e-05,1.3414634466171265,0.00439453125,0.01318359375,-7.897512034000591e-07,0.0016568335966815181,-7.832312368998511e-07,0.0016055838684682598,0.05581677246043191,0.05743891985758061
1623419887.319693,3.5019810603780452e-09,-2.8025135590190927e-10,3.21,0.96,1.1690274277498247e-06,-1.0874673534999602e-05,1.3414634466171265,0.00439453125,0.01318359375,-7.897512034000591e-07,0.0016568335966815181,-7.832312368998511e-07,0.0016055838684682598,0.05581677246043191,0.05743891985758061
1623419887.319693,3.5019810603780452e-09,-2.8025135590190927e-10,3.21,0.96,1.1834597444249084e-06,-1.1008928595401812e-05,1.3414634466171265,0.00439453125,0.01318359375,-7.897512034000591e-07,0.0016568335966815181,-7.84099181522439e-07,0.0015619057565621538,0.05581677246043191,0.05741448535686598
1623419887.319693,3.5019810603780452e-09,-2.8025135590190927e-10,3.21,0.96,1.1834597444249084e-06,-1.1008928595401812e-05,1.3414634466171265,0.00244140625,0.00830078125,-7.897512034000591e-07,0.0016568335966815181,-7.84099181522439e-07,0.0015619057565621538,0.05581677246043191,0.05741448535686598
1623419887.319693,3.5019810603780452e-09,-2.8025135590190927e-10,3.21,0.96,1.1834597444249084e-06,-1.1008928595401812e-05,1.3414634466171265,0.00244140625,0.00830078125,-7.897512034000591e-07,0.0016568335966815181,-7.84099181522439e-07,0.0015619057565621538,0.05581677246043191,0.05741448535686598
1623419887.379693,2.944912287228704e-09,-2.8527392736777054e-10,3.21,0.96,1.1834597444249084e-06,-1.1008928595401812e-05,1.3414634466171265,0.00244140625,0.00830078125,-7.904984538727105e-07,0.0018366746045895917,-7.84099181522439e-07,0.0015619057565621538,0.055821598318341194,0.05741448535686598
1623419887.379693,2.944912287228704e-09,-2.8527392736777054e-10,3.21,0.96,1.1834597444249084e-06,-1.1008928595401812e-05,1.3414634466171265,0.00244140625,0.00830078125,-7.904984538727105e-07,0.0018366746045895917,-7.84099181522439e-07,0.0015619057565621538,0.055821598318341194,0.05741448535686598
1623419887.379693,2.944912287228704e-09,-2.8527392736777054e-10,3.21,0.96,1.1834597444249084e-06,-1.1008928595401812e-05,1.3414634466171265,0.00244140625,0.00830078125,-7.904984538727105e-07,0.0018366746045895917,-7.84099181522439e-07,0.0015619057565621538,0.055821598318341194,0.05741448535686598
1623419887.379693,2.944912287228704e-09,-2.8527392736777054e-10,3.21,0.96,1.1690274277498247e-06,-1.0874673534999602e-05,1.3414634466171265,0.00244140625,0.00830078125,-7.904984538727105e-07,0.0018366746045895917,-7.84099181522439e-07,0.0015619057565621538,0.055821598318341194,0.05741448535686598
1623419887.379693,2.944912287228704e-09,-2.8527392736777054e-10,3.21,0.96,1.1690274277498247e-06,-1.0874673534999602e-05,1.402438998222351,-0.0087890625,0.00341796875,-7.910254979791583e-07,0.0017211697835059813,-7.849531029633057e-07,0.0016202584583205593,0.05581907364021166,0.05741651548816791
1623419887.439693,2.4095891016555837e-09,-2.8537408133422376e-10,3.21,0.96,1.1690274277498247e-06,-1.0874673534999602e-05,1.402438998222351,-0.0087890625,0.00341796875,-7.910254979791583e-07,0.0017211697835059813,-7.849531029633057e-07,0.0016202584583205593,0.05581907364021166,0.05741651548816791
1623419887.439693,2.4095891016555837e-09,-2.8537408133422376e-10,3.21,0.99,1.1690274277498247e-06,-1.0874673534999602e-05,1.402438998222351,-0.0087890625,0.00341796875,-7.910254979791583e-07,0.0017211697835059813,-7.849531029633057e-07,0.0016202584583205593,0.05581907364021166,0.05741651548816791
1623419887.439693,2.4095891016555837e-09,-2.8537408133422376e-10,3.21,0.99,1.1690274277498247e-06,-1.0874673534999602e-05,1.402438998222351,-0.0087890625,0.00341796875,-7.910254979791583e-07,0.0017211697835059813,-7.849531029633057e-07,0.0016202584583205593,0.05581907364021166,0.05741651548816791
1623419887.439693,2.4095891016555837e-09,-2.8537408133422376e-10,3.21,0.99,1.1690274277498247e-06,-1.0874673534999602e-05,1.402438998222351,-0.0087890625,0.00341796875,-7.910254979791583e-07,0.0017211697835059813,-7.849531029633057e-07,0.0016202584583205593,0.05581907364021166,0.05741651548816791
1623419887.439693,2.4095891016555837e-09,-2.8537408133422376e-10,3.21,0.99,1.1690274277498247e-06,-1.0874673534999602e-05,1.402438998222351,-0.0087890625,0.00341796875,-7.910254979791583e-07,0.0017211697835059813,-7.857998569322686e-07,0.0015868115363489512,0.05581907364021166,0.057414709637181684
1623419887.461693,3.3412060319542305e-09,-2.853112516884759e-10,3.21,0.99,1.1690274277498247e-06,-1.0874673534999602e-05,1.402438998222351,-0.0087890625,0.00341796875,-7.736228728983962e-07,0.0016431312391831988,-7.839674192027983e-07,0.001576219047670087,0.05585420246269575,0.05738824663327319
1623419887.461693,3.3412060319542305e-09,-2.853112516884759e-10,3.21,0.99,1.1690274277498247e-06,-1.0874673534999602e-05,1.402438998222351,-0.0087890625,0.00341796875,-7.736228728983962e-07,0.0016431312391831988,-7.839674192027983e-07,0.001576219047670087,0.05585420246269575,0.05738824663327319
1623419887.461693,3.3412060319542305e-09,-2.853112516884759e-10,3.21,0.99,1.1690274277498247e-06,-1.0874673534999602e-05,1.402438998222351,-0.0087890625,0.00341796875,-7.736228728983962e-07,0.0016431312391831988,-7.839674192027983e-07,0.001576219047670087,0.05585420246269575,0.05738824663327319
1623419887.461693,3.3412060319542305e-09,-2.853112516884759e-10,3.21,0.99,1.1690274277498247e-06,-1.0874673534999602e-05,1.402438998222351,-0.0087890625,0.00341796875,-7.736228728983962e-07,0.0016431312391831988,-7.839674192027983e-07,0.001576219047670087,0.05585420246269575,0.05738824663327319
1623419887.461693,3.3412060319542305e-09,-2.853112516884759e-10,3.21,0.98,1.1690274277498247e-06,-1.0874673534999602e-05,1.402438998222351,-0.0087890625,0.00341796875,-7.736228728983962e-07,0.0016431312391831988,-7.839674192027983e-07,0.001576219047670087,0.05585420246269575,0.05738824663327319
1623419887.499693,2.6928938086110467e-09,-2.8162105804936354e-10,3.21,0.98,1.1690274277498247e-06,-1.0874673534999602e-05,1.402438998222351,-0.0087890625,0.00341796875,-7.922633489482344e-07,0.0015765847417773798,-7.839674192027983e-07,0.001576219047670087,0.055814340091363,0.05738824663327319
1623419887.499693,2.6928938086110467e-09,-2.8162105804936354e-10,3.21,0.98,1.1690274277498247e-06,-1.0874673534999602e-05,1.2804877758026123,-0.00439453125,0.0087890625,-7.922633489482344e-07,0.0015765847417773798,-7.839674192027983e-07,0.001576219047670087,0.055814340091363,0.05738824663327319
1623419887.499693,2.6928938086110467e-09,-2.8162105804936354e-10,3.21,0.98,1.1690274277498247e-06,-1.0874673534999602e-05,1.2804877758026123,-0.00439453125,0.0087890625,-7.922633489482344e-07,0.0015765847417773798,-7.839674192027983e-07,0.001576219047670087,0.055814340091363,0.05738824663327319
1623419887.499693,2.6928938086110467e-09,-2.8162105804936354e-10,3.21,0.98,1.1690274277498247e-06,-1.0874673534999602e-05,1.2804877758026123,-0.00439453125,0.0087890625,-7.922633489482344e-07,0.0015765847417773798,-7.839674192027983e-07,0.001576219047670087,0.055814340091363,0.05738824663327319
1623419887.499693,2.6928938086110467e-09,-2.8162105804936354e-10,3.21,0.98,1.1690274277498247e-06,-1.0874673534999602e-05,1.2804877758026123,-0.00439453125,0.0087890625,-7.922633489482344e-07,0.0015765847417773798,-7.850762573209806e-07,0.001527574919693531,0.055814340091363,0.05735573338359979
1623419887.565693,2.4523537918314054e-09,-2.7445236517872623e-10,3.21,0.98,1.1690274277498247e-06,-1.0874673534999602e-05,1.2804877758026123,-0.00439453125,0.0087890625,-7.878613943076892e-07,0.0017556572070086829,-7.850762573209806e-07,0.001527574919693531,0.05582841734782127,0.05735573338359979
1623419887.565693,2.4523537918314054e-09,-2.7445236517872623e-10,3.21,0.98,1.1690274277498247e-06,-1.0874673534999602e-05,1.2804877758026123,-0.00439453125,0.0087890625,-7.878613943076892e-07,0.0017556572070086829,-7.850762573209806e-07,0.001527574919693531,0.05582841734782127,0.05735573338359979
1623419887.565693,2.4523537918314054e-09,-2.7445236517872623e-10,3.21,0.98,1.1690274277498247e-06,-1.0874673534999602e-05,1.2804877758026123,-0.00439453125,0.0087890625,-7.878613943076892e-07,0.0017556572070086829,-7.850762573209806e-07,0.001527574919693531,0.05582841734782127,0.05735573338359979
1623419887.565693,2.4523537918314054e-09,-2.7445236517872623e-10,3.21,0.98,1.1690274277498247e-06,-1.0874673534999602e-05,1.2804877758026123,-0.00439453125,0.0087890625,-7.878613943076892e-07,0.0017556572070086829,-7.850762573209806e-07,0.001527574919693531,0.05582841734782127,0.05735573338359979
1623419887.565693,2.4523537918314054e-09,-2.7445236517872623e-10,3.22,0.97,1.1690274277498247e-06,-1.0874673534999602e-05,1.2804877758026123,-0.00439453125,0.0087890625,-7.878613943076892e-07,0.0017556572070086829,-7.853567897989279e-07,0.0015818070686814424,0.05582841734782127,0.05737949805124277
1623419887.619693,1.795102546425065e-09,-2.6456740815953543e-10,3.22,0.97,1.1690274277498247e-06,-1.0874673534999602e-05,1.2804877758026123,-0.00439453125,0.0087890625,-7.931812249185276e-07,0.0016561328329862534,-7.853567897989279e-07,0.0015818070686814424,0.055815996544329616,0.05737949805124277
1623419887.619693,1.795102546425065e-09,-2.6456740815953543e-10,3.22,0.97,1.1690274277498247e-06,-1.0874673534999602e-05,1.2804877758026123,-0.00439453125,0.0087890625,-7.931812249185276e-07,0.0016561328329862534,-7.853567897989279e-07,0.0015818070686814424,0.055815996544329616,0.05737949805124277
1623419887.619693,1.795102546425065e-09,-2.6456740815953543e-10,3.22,0.97,1.1690274277498247e-06,-1.0874673534999602e-05,1.402438998222351,-0.009765625,0.0068359375,-7.931812249185276e-07,0.0016561328329862534,-7.853567897989279e-07,0.0015818070686814424,0.055815996544329616,0.05737949805124277
1623419887.619693,1.795102546425065e-09,-2.6456740815953543e-10,3.22,0.97,1.1690274277498247e-06,-1.0874673534999602e-05,1.402438998222351,-0.009765625,0.0068359375,-7.931812249185276e-07,0.0016561328329862534,-7.86476526783162e-07,0.0015494622276886667,0.055815996544329616,0.057371498220089495
1623419887.619693,1.795102546425065e-09,-2.6456740815953543e-10,3.22,0.97,1.1690274277498247e-06,-1.0874673534999602e-05,1.402438998222351,-0.009765625,0.0068359375,-7.931812249185276e-07,0.0016561328329862534,-7.86476526783162e-07,0.0015494622276886667,0.055815996544329616,0.057371498220089495
1623419887.679693,1.1625256902142352e-09,-2.523322200286157e-10,3.22,0.97,1.1690274277498247e-06,-1.0874673534999602e-05,1.402438998222351,-0.009765625,0.0068359375,-7.938547765933271e-07,0.001814551256328612,-7.86476526783162e-07,0.0015494622276886667,0.0558211962804553,0.057371498220089495
1623419887.679693,1.1625256902142352e-09,-2.523322200286157e-10,3.22,0.97,1.1690274277498247e-06,-1.0874673534999602e-05,1.402438998222351,-0.009765625,0.0068359375,-7.938547765933271e-07,0.001814551256328612,-7.86476526783162e-07,0.0015494622276886667,0.0558211962804553,0.057371498220089495
1623419887.679693,1.1625256902142352e-09,-2.523322200286157e-10,3.22,0.97,1.1690274277498247e-06,-1.0874673534999602e-05,1.402438998222351,-0.009765625,0.0068359375,-7.938547765933271e-07,0.001814551256328612,-7.86476526783162e-07,0.0015494622276886667,0.0558211962804553,0.057371498220089495
1623419887.679693,1.1625256902142352e-09,-2.523322200286157e-10,3.22,0.97,1.1690274277498247e-06,-1.0874673534999602e-05,1.402438998222351,-0.009765625,0.0068359375,-7.938547765933271e-07,0.001814551256328612,-7.875750077025767e-07,0.0016034322843149664,0.0558211962804553,0.05737631755234554
1623419887.679693,1.1625256902142352e-09,-2.523322200286157e-10,3.23,1.0,1.1690274277498247e-06,-1.0874673534999602e-05,1.402438998222351,-0.009765625,0.0068359375,-7.938547765933271e-07,0.001814551256328612,-7.875750077025767e-07,0.0016034322843149664,0.0558211962804553,0.05737631755234554
1623419887.739693,6.064121687541125e-10,-2.3830652022077196e-10,3.23,1.0,1.1690274277498247e-06,-1.0874673534999602e-05,1.402438998222351,-0.009765625,0.0068359375,-7.93983481746692e-07,0.0017002865741918066,-7.875750077025767e-07,0.0016034322843149664,0.05581834944921318,0.05737631755234554
1623419887.739693,6.064121687541125e-10,-2.3830652022077196e-10,3.23,1.0,1.1690274277498247e-06,-1.0874673534999602e-05,1.402438998222351,-0.009765625,0.0068359375,-7.93983481746692e-07,0.0017002865741918066,-7.875750077025767e-07,0.0016034322843149664,0.05581834944921318,0.05737631755234554
1623419887.739693,6.064121687541125e-10,-2.3830652022077196e-10,3.23,1.0,1.1690274277498247e-06,-1.0874673534999602e-05,1.3414634466171265,-0.00634765625,-0.00048828125,-7.93983481746692e-07,0.0017002865741918066,-7.875750077025767e-07,0.0016034322843149664,0.05581834944921318,0.05737631755234554
1623419887.739693,6.064121687541125e-10,-2.3830652022077196e-10,3.23,1.0,1.1690274277498247e-06,-1.0874673534999602e-05,1.3414634466171265,-0.00634765625,-0.00048828125,-7.93983481746692e-07,0.0017002865741918066,-7.875750077025767e-07,0.0016034322843149664,0.05581834944921318,0.05737631755234554
1623419887.739693,6.064121687541125e-10,-2.3830652022077196e-10,3.23,1.0,1.154942651737656e-06,-1.0743652637756895e-05,1.3414634466171265,-0.00634765625,-0.00048828125,-7.93983481746692e-07,0.0017002865741918066,-7.885670240882373e-07,0.0015686073115779725,0.05581834944921318,0.05737697506538185
1623419887.773693,2.301762839358301e-09,-2.2728956624488268e-10,3.23,1.0,1.154942651737656e-06,-1.0743652637756895e-05,1.3414634466171265,-0.00634765625,-0.00048828125,-7.669879382326449e-07,0.0018089524110125954,-7.885670240882373e-07,0.0015686073115779725,0.055883521548683875,0.05737697506538185
1623419887.773693,2.301762839358301e-09,-2.2728956624488268e-10,3.23,1.0,1.154942651737656e-06,-1.0743652637756895e-05,1.3414634466171265,-0.00634765625,-0.00048828125,-7.669879382326449e-07,0.0018089524110125954,-7.885670240882373e-07,0.0015686073115779725,0.055883521548683875,0.05737697506538185
1623419887.773693,2.301762839358301e-09,-2.2728956624488268e-10,3.23,1.0,1.154942651737656e-06,-1.0743652637756895e-05,1.3414634466171265,-0.00634765625,-0.00048828125,-7.669879382326449e-07,0.0018089524110125954,-7.885670240882373e-07,0.0015686073115779725,0.055883521548683875,0.05737697506538185
1623419887.773693,2.301762839358301e-09,-2.2728956624488268e-10,3.23,1.0,1.154942651737656e-06,-1.0743652637756895e-05,1.3414634466171265,-0.00634765625,-0.00048828125,-7.669879382326449e-07,0.0018089524110125954,-7.885670240882373e-07,0.0015686073115779725,0.055883521548683875,0.05737697506538185
1623419887.773693,2.301762839358301e-09,-2.2728956624488268e-10,3.23,1.0,1.154942651737656e-06,-1.0743652637756895e-05,1.3414634466171265,-0.00634765625,-0.00048828125,-7.669879382326449e-07,0.0018089524110125954,-7.85311269308696e-07,0.001635260511344615,0.055883521548683875,0.05738469374332092
1623419887.7996929,1.5633981722115368e-09,-2.1534902624983895e-10,3.23,1.0,1.1834597444249084e-06,-1.1008928595401812e-05,1.3414634466171265,-0.00634765625,-0.00048828125,-7.94899497807894e-07,0.0017571217660986408,-7.85311269308696e-07,0.001635260511344615,0.055820911323240706,0.05738469374332092
1623419887.7996929,1.5633981722115368e-09,-2.1534902624983895e-10,3.23,1.0,1.1834597444249084e-06,-1.1008928595401812e-05,1.3414634466171265,-0.00634765625,-0.00048828125,-7.94899497807894e-07,0.0017571217660986408,-7.85311269308696e-07,0.001635260511344615,0.055820911323240706,0.05738469374332092
1623419887.7996929,1.5633981722115368e-09,-2.1534902624983895e-10,3.23,1.0,1.1834597444249084e-06,-1.1008928595401812e-05,1.2804877758026123,-0.00537109375,-0.0048828125,-7.94899497807894e-07,0.0017571217660986408,-7.85311269308696e-07,0.001635260511344615,0.055820911323240706,0.05738469374332092
1623419887.7996929,1.5633981722115368e-09,-2.1534902624983895e-10,3.23,1.0,1.1834597444249084e-06,-1.1008928595401812e-05,1.2804877758026123,-0.00537109375,-0.0048828125,-7.94899497807894e-07,0.0017571217660986408,-7.866584416675944e-07,0.0016249995748533455,0.055820911323240706,0.05733911516584105
1623419887.7996929,1.5633981722115368e-09,-2.1534902624983895e-10,3.23,1.0,1.1834597444249084e-06,-1.1008928595401812e-05,1.2804877758026123,-0.00537109375,-0.0048828125,-7.94899497807894e-07,0.0017571217660986408,-7.866584416675944e-07,0.0016249995748533455,0.055820911323240706,0.05733911516584105
1623419887.877693,2.0520924922184813e-09,-2.0111395054195636e-10,3.23,1.0,1.1834597444249084e-06,-1.1008928595401812e-05,1.2804877758026123,-0.00537109375,-0.0048828125,-7.806077264112779e-07,0.0018966825700030415,-7.866584416675944e-07,0.0016249995748533455,0.05585865222476438,0.05733911516584105
1623419887.877693,2.0520924922184813e-09,-2.0111395054195636e-10,3.23,1.0,1.1690274277498247e-06,-1.0874673534999602e-05,1.2804877758026123,-0.00537109375,-0.0048828125,-7.806077264112779e-07,0.0018966825700030415,-7.866584416675944e-07,0.0016249995748533455,0.05585865222476438,0.05733911516584105
1623419887.877693,2.0520924922184813e-09,-2.0111395054195636e-10,3.23,1.0,1.1690274277498247e-06,-1.0874673534999602e-05,1.2804877758026123,-0.00537109375,-0.0048828125,-7.806077264112779e-07,0.0018966825700030415,-7.856045065607346e-07,0.0017062770438651725,0.05585865222476438,0.05740457107975636
1623419887.877693,2.0520924922184813e-09,-2.0111395054195636e-10,3.23,1.0,1.1690274277498247e-06,-1.0874673534999602e-05,1.2804877758026123,-0.00537109375,-0.0048828125,-7.806077264112779e-07,0.0018966825700030415,-7.856045065607346e-07,0.0017062770438651725,0.05585865222476438,0.05740457107975636
1623419887.877693,2.0520924922184813e-09,-2.0111395054195636e-10,3.23,1.0,1.1690274277498247e-06,-1.0874673534999602e-05,1.2804877758026123,-0.00537109375,-0.0048828125,-7.806077264112779e-07,0.0018966825700030415,-7.856045065607346e-07,0.0017062770438651725,0.05585865222476438,0.05740457107975636
1623419887.919693,1.2285565473842019e-09,-1.863613198414451e-10,3.23,1.0,1.1690274277498247e-06,-1.0874673534999602e-05,1.2804877758026123,-0.00390625,0.00927734375,-7.955894680779892e-07,0.0018117314616476006,-7.856045065607346e-07,0.0017062770438651725,0.05582336234518201,0.05740457107975636
1623419887.919693,1.2285565473842019e-09,-1.863613198414451e-10,3.23,1.0,1.1690274277498247e-06,-1.0874673534999602e-05,1.2804877758026123,-0.00390625,0.00927734375,-7.955894680779892e-07,0.0018117314616476006,-7.856045065607346e-07,0.0017062770438651725,0.05582336234518201,0.05740457107975636
1623419887.919693,1.2285565473842019e-09,-1.863613198414451e-10,3.23,1.0,1.154942651737656e-06,-1.0743652637756895e-05,1.2804877758026123,-0.00390625,0.00927734375,-7.955894680779892e-07,0.0018117314616476006,-7.856045065607346e-07,0.0017062770438651725,0.05582336234518201,0.05740457107975636
1623419887.919693,1.2285565473842019e-09,-1.863613198414451e-10,3.23,1.0,1.154942651737656e-06,-1.0743652637756895e-05,1.2804877758026123,-0.00390625,0.00927734375,-7.955894680779892e-07,0.0018117314616476006,-7.870882740706781e-07,0.0016851689627024856,0.05582336234518201,0.05738212566729826
1623419887.919693,1.2285565473842019e-09,-1.863613198414451e-10,3.23,1.0,1.154942651737656e-06,-1.0743652637756895e-05,1.2804877758026123,-0.00390625,0.00927734375,-7.955894680779892e-07,0.0018117314616476006,-7.870882740706781e-07,0.0016851689627024856,0.05582336234518201,0.05738212566729826
1623419887.979693,4.559364295093264e-10,-1.7065146590540828e-10,3.23,1.0,1.154942651737656e-06,-1.0743652637756895e-05,1.2804877758026123,-0.00390625,0.00927734375,-7.962224254470572e-07,0.0016222782671204002,-7.870882740706781e-07,0.0016851689627024856,0.05581714660287749,0.05738212566729826
1623419887.979693,4.559364295093264e-10,-1.7065146590540828e-10,3.23,1.0,1.154942651737656e-06,-1.0743652637756895e-05,1.2804877758026123,-0.00390625,0.00927734375,-7.962224254470572e-07,0.0016222782671204002,-7.870882740706781e-07,0.0016851689627024856,0.05581714660287749,0.05738212566729826
1623419887.979693,4.559364295093264e-10,-1.7065146590540828e-10,3.23,1.0,1.154942651737656e-06,-1.0743652637756895e-05,1.2804877758026123,-0.00390625,0.00927734375,-7.962224254470572e-07,0.0016222782671204002,-7.870882740706781e-07,0.0016851689627024856,0.05581714660287749,0.05738212566729826
1623419887.979693,4.559364295093264e-10,-1.7065146590540828e-10,3.23,1.0,1.1690274277498247e-06,-1.0874673534999602e-05,1.2804877758026123,-0.00390625,0.00927734375,-7.962224254470572e-07,0.0016222782671204002,-7.884881953708035e-07,0.0015975523578466893,0.05581714660287749,0.0573833125077781
1623419887.979693,4.559364295093264e-10,-1.7065146590540828e-10,3.23,1.0,1.1690274277498247e-06,-1.0874673534999602e-05,1.2804877758026123,-0.00390625,0.00927734375,-7.962224254470572e-07,0.0016222782671204002,-7.884881953708035e-07,0.0015975523578466893,0.05581714660287749,0.0573833125077781
1623419888.0396929,-1.9346200188546284e-10,-1.5448323267145978e-10,3.23,1.0,1.1690274277498247e-06,-1.0874673534999602e-05,1.3414634466171265,-0.00537109375,0.0078125,-7.960631673446757e-07,0.0015202197131072754,-7.884881953708035e-07,0.0015975523578466893,0.05581185021057823,0.0573833125077781
1623419888.0396929,-1.9346200188546284e-10,-1.5448323267145978e-10,3.23,1.0,1.1690274277498247e-06,-1.0874673534999602e-05,1.3414634466171265,-0.00537109375,0.0078125,-7.960631673446757e-07,0.0015202197131072754,-7.884881953708035e-07,0.0015975523578466893,0.05581185021057823,0.0573833125077781
1623419888.0396929,-1.9346200188546284e-10,-1.5448323267145978e-10,3.23,1.0,1.1690274277498247e-06,-1.0874673534999602e-05,1.3414634466171265,-0.00537109375,0.0078125,-7.960631673446757e-07,0.0015202197131072754,-7.897007896547904e-07,0.0015014437708920413,0.05581185021057823,0.05737797456082589
1623419888.0396929,-1.9346200188546284e-10,-1.5448323267145978e-10,3.23,1.0,1.1690274277498247e-06,-1.0874673534999602e-05,1.3414634466171265,-0.00537109375,0.0078125,-7.960631673446757e-07,0.0015202197131072754,-7.897007896547904e-07,0.0015014437708920413,0.05581185021057823,0.05737797456082589
1623419888.0396929,-1.9346200188546284e-10,-1.5448323267145978e-10,3.23,1.0,1.1690274277498247e-06,-1.0874673534999602e-05,1.3414634466171265,-0.00537109375,0.0078125,-7.753655493950947e-07,0.0018278110152197362,-7.897007896547904e-07,0.0015014437708920413,0.055867695531248346,0.05737797456082589
1623419888.065693,9.142088494861529e-10,-1.421154258307442e-10,3.23,1.0,1.1690274277498247e-06,-1.0874673534999602e-05,1.3414634466171265,-0.00537109375,0.0078125,-7.753655493950947e-07,0.0018278110152197362,-7.897007896547904e-07,0.0015014437708920413,0.055867695531248346,0.05737797456082589
1623419888.065693,9.142088494861529e-10,-1.421154258307442e-10,3.23,1.0,1.1690274277498247e-06,-1.0874673534999602e-05,1.3414634466171265,-0.00537109375,0.0078125,-7.753655493950947e-07,0.0018278110152197362,-7.875926345930001e-07,0.0015997503089651376,0.055867695531248346,0.05736801981674723
1623419888.065693,9.142088494861529e-10,-1.421154258307442e-10,3.23,1.0,1.1690274277498247e-06,-1.0874673534999602e-05,1.3414634466171265,-0.00537109375,0.0078125,-7.753655493950947e-07,0.0018278110152197362,-7.875926345930001e-07,0.0015997503089651376,0.055867695531248346,0.05736801981674723
1623419888.065693,9.142088494861529e-10,-1.421154258307442e-10,3.23,0.98,1.1690274277498247e-06,-1.0874673534999602e-05,1.3414634466171265,-0.00537109375,0.0078125,-7.753655493950947e-07,0.0018278110152197362,-7.875926345930001e-07,0.0015997503089651376,0.055867695531248346,0.05736801981674723
1623419888.065693,9.142088494861529e-10,-1.421154258307442e-10,3.23,0.98,1.1834597444249084e-06,-1.1008928595401812e-05,1.3414634466171265,-0.00537109375,0.0078125,-7.966992451792712e-07,0.0017609863376981056,-7.875926345930001e-07,0.0015997503089651376,0.055820216927656305,0.05736801981674723
1623419888.099693,2.1350597788168602e-10,-1.2948051694504805e-10,3.23,0.98,1.1834597444249084e-06,-1.1008928595401812e-05,1.3414634466171265,-0.00537109375,0.0078125,-7.966992451792712e-07,0.0017609863376981056,-7.875926345930001e-07,0.0015997503089651376,0.055820216927656305,0.05736801981674723
1623419888.099693,2.1350597788168602e-10,-1.2948051694504805e-10,3.23,0.98,1.1834597444249084e-06,-1.1008928595401812e-05,1.3414634466171265,-0.0048828125,0.00537109375,-7.966992451792712e-07,0.0017609863376981056,-7.875926345930001e-07,0.0015997503089651376,0.055820216927656305,0.05736801981674723
1623419888.099693,2.1350597788168602e-10,-1.2948051694504805e-10,3.23,0.98,1.1834597444249084e-06,-1.1008928595401812e-05,1.3414634466171265,-0.0048828125,0.00537109375,-7.966992451792712e-07,0.0017609863376981056,-7.888959943336644e-07,0.0016046539962498631,0.055820216927656305,0.057335358339463884
1623419888.099693,2.1350597788168602e-10,-1.2948051694504805e-10,3.23,0.98,1.1834597444249084e-06,-1.1008928595401812e-05,1.3414634466171265,-0.0048828125,0.00537109375,-7.966992451792712e-07,0.0017609863376981056,-7.888959943336644e-07,0.0016046539962498631,0.055820216927656305,0.057335358339463884
1623419888.099693,2.1350597788168602e-10,-1.2948051694504805e-10,3.23,0.98,1.1834597444249084e-06,-1.1008928595401812e-05,1.3414634466171265,-0.0048828125,0.00537109375,-7.884971687672266e-07,0.0018022325184653349,-7.888959943336644e-07,0.0016046539962498631,0.055839513957584776,0.057335358339463884
1623419888.169693,2.448002992185241e-10,-1.1571969494091251e-10,3.23,0.98,1.1690274277498247e-06,-1.0874673534999602e-05,1.3414634466171265,-0.0048828125,0.00537109375,-7.884971687672266e-07,0.0018022325184653349,-7.888959943336644e-07,0.0016046539962498631,0.055839513957584776,0.057335358339463884
1623419888.169693,2.448002992185241e-10,-1.1571969494091251e-10,3.23,0.98,1.1690274277498247e-06,-1.0874673534999602e-05,1.3414634466171265,-0.0048828125,0.00537109375,-7.884971687672266e-07,0.0018022325184653349,-7.888959943336644e-07,0.0016046539962498631,0.055839513957584776,0.057335358339463884
1623419888.169693,2.448002992185241e-10,-1.1571969494091251e-10,3.23,0.98,1.1690274277498247e-06,-1.0874673534999602e-05,1.3414634466171265,-0.0048828125,0.00537109375,-7.884971687672266e-07,0.0018022325184653349,-7.888959943336644e-07,0.0016046539962498631,0.055839513957584776,0.057335358339463884
1623419888.169693,2.448002992185241e-10,-1.1571969494091251e-10,3.22,0.97,1.1690274277498247e-06,-1.0874673534999602e-05,1.3414634466171265,-0.0048828125,0.00537109375,-7.884971687672266e-07,0.0018022325184653349,-7.888959943336644e-07,0.0016046539962498631,0.055839513957584776,0.057335358339463884
1623419888.219693,-4.018186486090318e-10,-1.0187373687184422e-10,3.22,0.97,1.1690274277498247e-06,-1.0874673534999602e-05,1.3414634466171265,-0.0048828125,0.00537109375,-7.966690146333611e-07,0.00170708928948341,-7.888214476974856e-07,0.0016474214909827755,0.05581905793909188,0.05737592857149711
1623419888.219693,-4.018186486090318e-10,-1.0187373687184422e-10,3.22,0.97,1.1690274277498247e-06,-1.0874673534999602e-05,1.3414634466171265,-0.0048828125,0.00537109375,-7.966690146333611e-07,0.00170708928948341,-7.888214476974856e-07,0.0016474214909827755,0.05581905793909188,0.05737592857149711
1623419888.219693,-4.018186486090318e-10,-1.0187373687184422e-10,3.22,0.97,1.1690274277498247e-06,-1.0874673534999602e-05,1.3414634466171265,-0.0048828125,0.00537109375,-7.966690146333611e-07,0.00170708928948341,-7.888214476974856e-07,0.0016474214909827755,0.05581905793909188,0.05737592857149711
1623419888.219693,-4.018186486090318e-10,-1.0187373687184422e-10,3.22,0.97,1.1690274277498247e-06,-1.0874673534999602e-05,1.2804877758026123,-0.0068359375,0.0029296875,-7.966690146333611e-07,0.00170708928948341,-7.888214476974856e-07,0.0016474214909827755,0.05581905793909188,0.05737592857149711
1623419888.219693,-4.018186486090318e-10,-1.0187373687184422e-10,3.22,0.97,1.1690274277498247e-06,-1.0874673534999602e-05,1.2804877758026123,-0.0068359375,0.0029296875,-7.966690146333611e-07,0.00170708928948341,-7.888214476974856e-07,0.0016474214909827755,0.05581905793909188,0.05737592857149711
1623419888.219693,-4.018186486090318e-10,-1.0187373687184422e-10,3.22,0.97,1.1690274277498247e-06,-1.0874673534999602e-05,1.2804877758026123,-0.0068359375,0.0029296875,-7.967084792155556e-07,0.0018948287557857334,-7.900405900216286e-07,0.0016092201605719116,0.055824568617809114,0.057364675735565175
1623419888.279693,-9.616268957292704e-10,-8.787564369114949e-11,3.22,0.97,1.1690274277498247e-06,-1.0874673534999602e-05,1.2804877758026123,-0.0068359375,0.0029296875,-7.967084792155556e-07,0.0018948287557857334,-7.900405900216286e-07,0.0016092201605719116,0.055824568617809114,0.057364675735565175
1623419888.279693,-9.616268957292704e-10,-8.787564369114949e-11,3.22,0.97,1.1690274277498247e-06,-1.0874673534999602e-05,1.2804877758026123,-0.0068359375,0.0029296875,-7.967084792155556e-07,0.0018948287557857334,-7.900405900216286e-07,0.0016092201605719116,0.055824568617809114,0.057364675735565175
1623419888.279693,-9.616268957292704e-10,-8.787564369114949e-11,3.22,0.97,1.1690274277498247e-06,-1.0874673534999602e-05,1.2804877758026123,-0.0068359375,0.0029296875,-7.967084792155556e-07,0.0018948287557857334,-7.900405900216286e-07,0.0016092201605719116,0.055824568617809114,0.057364675735565175
1623419888.279693,-9.616268957292704e-10,-8.787564369114949e-11,3.22,0.97,1.1690274277498247e-06,-1.0874673534999602e-05,1.2804877758026123,-0.0068359375,0.0029296875,-7.967084792155556e-07,0.0018948287557857334,-7.900405900216286e-07,0.0016092201605719116,0.055824568617809114,0.057364675735565175
1623419888.339693,-1.410399710908975e-09,-7.400092354280885e-11,3.22,0.97,1.1690274277498247e-06,-1.0874673534999602e-05,1.2804877758026123,-0.0068359375,0.0029296875,-7.964277129497577e-07,0.0017755691329056427,-7.911316778606936e-07,0.001672992578199142,0.055821802925673084,0.05737374953668821
1623419888.339693,-1.410399710908975e-09,-7.400092354280885e-11,3.22,0.97,1.1690274277498247e-06,-1.0874673534999602e-05,1.2804877758026123,-0.0068359375,0.0029296875,-7.964277129497577e-07,0.0017755691329056427,-7.920458635139128e-07,0.001640866762849137,0.055821802925673084,0.05737851043971524
1623419888.339693,-1.410399710908975e-09,-7.400092354280885e-11,3.22,0.97,1.1690274277498247e-06,-1.0874673534999602e-05,1.3414634466171265,0.0009765625,-0.00244140625,-7.964277129497577e-07,0.0017755691329056427,-7.920458635139128e-07,0.001640866762849137,0.055821802925673084,0.05737851043971524
1623419888.339693,-1.410399710908975e-09,-7.400092354280885e-11,3.22,0.97,1.1690274277498247e-06,-1.0874673534999602e-05,1.3414634466171265,0.0009765625,-0.00244140625,-7.964277129497577e-07,0.0017755691329056427,-7.920458635139128e-07,0.001640866762849137,0.055821802925673084,0.05737851043971524
1623419888.339693,-1.410399710908975e-09,-7.400092354280885e-11,3.22,0.97,1.1690274277498247e-06,-1.0874673534999602e-05,1.3414634466171265,0.0009765625,-0.00244140625,-7.964277129497577e-07,0.0017755691329056427,-7.920458635139128e-07,0.001640866762849137,0.055821802925673084,0.05737851043971524
1623419888.377693,6.400526745697996e-10,-6.31974637760446e-11,3.22,0.97,1.1690274277498247e-06,-1.0874673534999602e-05,1.3414634466171265,0.0009765625,-0.00244140625,-7.661636042724186e-07,0.0020266754890968515,-7.920458635139128e-07,0.001640866762849137,0.05590537988080455,0.05737851043971524
1623419888.377693,6.400526745697996e-10,-6.31974637760446e-11,3.22,0.97,1.1690274277498247e-06,-1.0874673534999602e-05,1.3414634466171265,0.0009765625,-0.00244140625,-7.661636042724186e-07,0.0020266754890968515,-7.920458635139128e-07,0.001640866762849137,0.05590537988080455,0.05737851043971524
1623419888.377693,6.400526745697996e-10,-6.31974637760446e-11,3.22,0.97,1.1690274277498247e-06,-1.0874673534999602e-05,1.3414634466171265,0.0009765625,-0.00244140625,-7.661636042724186e-07,0.0020266754890968515,-7.920458635139128e-07,0.001640866762849137,0.05590537988080455,0.05737851043971524
1623419888.377693,6.400526745697996e-10,-6.31974637760446e-11,3.22,0.97,1.1690274277498247e-06,-1.0874673534999602e-05,1.3414634466171265,0.0009765625,-0.00244140625,-7.661636042724186e-07,0.0020266754890968515,-7.920458635139128e-07,0.001640866762849137,0.05590537988080455,0.05737851043971524
1623419888.377693,6.400526745697996e-10,-6.31974637760446e-11,3.21,0.96,1.1690274277498247e-06,-1.0874673534999602e-05,1.3414634466171265,0.0009765625,-0.00244140625,-7.661636042724186e-07,0.0020266754890968515,-7.881873780933705e-07,0.0017706791373496627,0.05590537988080455,0.05740203873169537
1623419888.399693,-2.9430868002356585e-11,-5.28198285190447e-11,3.21,0.96,1.1834597444249084e-06,-1.1008928595401812e-05,1.3414634466171265,0.0009765625,-0.00244140625,-7.969544383924099e-07,0.001976869448184173,-7.881873780933705e-07,0.0017706791373496627,0.0558295053322693,0.05740203873169537
1623419888.399693,-2.9430868002356585e-11,-5.28198285190447e-11,3.21,0.96,1.1834597444249084e-06,-1.1008928595401812e-05,1.3414634466171265,-0.001953125,0.00732421875,-7.969544383924099e-07,0.001976869448184173,-7.881873780933705e-07,0.0017706791373496627,0.0558295053322693,0.05740203873169537
1623419888.399693,-2.9430868002356585e-11,-5.28198285190447e-11,3.21,0.96,1.1834597444249084e-06,-1.1008928595401812e-05,1.3414634466171265,-0.001953125,0.00732421875,-7.969544383924099e-07,0.001976869448184173,-7.881873780933705e-07,0.0017706791373496627,0.0558295053322693,0.05740203873169537
1623419888.399693,-2.9430868002356585e-11,-5.28198285190447e-11,3.21,0.96,1.1834597444249084e-06,-1.1008928595401812e-05,1.3414634466171265,-0.001953125,0.00732421875,-7.969544383924099e-07,0.001976869448184173,-7.881873780933705e-07,0.0017706791373496627,0.0558295053322693,0.05740203873169537
1623419888.399693,-2.9430868002356585e-11,-5.28198285190447e-11,3.21,0.96,1.1834597444249084e-06,-1.1008928595401812e-05,1.3414634466171265,-0.001953125,0.00732421875,-7.969544383924099e-07,0.001976869448184173,-7.894490696876351e-07,0.0017881805497796874,0.0558295053322693,0.057353997577250855
1623419888.461693,-4.808047064320907e-10,-4.194765532884292e-11,3.21,0.96,1.1834597444249084e-06,-1.1008928595401812e-05,1.3414634466171265,-0.001953125,0.00732421875,-7.950851774091742e-07,0.0017338941364558606,-7.894490696876351e-07,0.0017881805497796874,0.05582595897053243,0.057353997577250855
1623419888.461693,-4.808047064320907e-10,-4.194765532884292e-11,3.21,0.96,1.1690274277498247e-06,-1.0874673534999602e-05,1.3414634466171265,-0.001953125,0.00732421875,-7.950851774091742e-07,0.0017338941364558606,-7.894490696876351e-07,0.0017881805497796874,0.05582595897053243,0.057353997577250855
1623419888.461693,-4.808047064320907e-10,-4.194765532884292e-11,3.21,0.96,1.1690274277498247e-06,-1.0874673534999602e-05,1.3414634466171265,-0.001953125,0.00732421875,-7.950851774091742e-07,0.0017338941364558606,-7.894490696876351e-07,0.0017881805497796874,0.05582595897053243,0.057353997577250855
1623419888.461693,-4.808047064320907e-10,-4.194765532884292e-11,3.21,0.96,1.1690274277498247e-06,-1.0874673534999602e-05,1.3414634466171265,-0.001953125,0.00732421875,-7.950851774091742e-07,0.0017338941364558606,-7.894490696876351e-07,0.0017881805497796874,0.05582595897053243,0.057353997577250855
1623419888.461693,-4.808047064320907e-10,-4.194765532884292e-11,3.21,0.95,1.1690274277498247e-06,-1.0874673534999602e-05,1.3414634466171265,-0.001953125,0.00732421875,-7.950851774091742e-07,0.0017338941364558606,-7.903101348733704e-07,0.0017156501473650136,0.05582595897053243,0.05737327445002229
1623419888.519693,-9.883256694095775e-10,-3.1010193114558524e-11,3.21,0.95,1.1690274277498247e-06,-1.0874673534999602e-05,1.3414634466171265,-0.001953125,0.00732421875,-7.964976247553092e-07,0.0016288296133449007,-7.903101348733704e-07,0.0017156501473650136,0.05581713744985518,0.05737327445002229
1623419888.519693,-9.883256694095775e-10,-3.1010193114558524e-11,3.21,0.95,1.1690274277498247e-06,-1.0874673534999602e-05,1.3414634466171265,-0.005859375,0.01123046875,-7.964976247553092e-07,0.0016288296133449007,-7.903101348733704e-07,0.0017156501473650136,0.05581713744985518,0.05737327445002229
1623419888.519693,-9.883256694095775e-10,-3.1010193114558524e-11,3.21,0.95,1.1690274277498247e-06,-1.0874673534999602e-05,1.3414634466171265,-0.005859375,0.01123046875,-7.964976247553092e-07,0.0016288296133449007,-7.903101348733704e-07,0.0017156501473650136,0.05581713744985518,0.05737327445002229
1623419888.519693,-9.883256694095775e-10,-3.1010193114558524e-11,3.21,0.95,1.1690274277498247e-06,-1.0874673534999602e-05,1.3414634466171265,-0.005859375,0.01123046875,-7.964976247553092e-07,0.0016288296133449007,-7.903101348733704e-07,0.0017156501473650136,0.05581713744985518,0.05737327445002229
1623419888.519693,-9.883256694095775e-10,-3.1010193114558524e-11,3.21,0.95,1.1690274277498247e-06,-1.0874673534999602e-05,1.3414634466171265,-0.005859375,0.01123046875,-7.964976247553092e-07,0.0016288296133449007,-7.913042688275846e-07,0.0016254069864390555,0.05581713744985518,0.05737548827738088
1623419888.579693,-1.4504179801911004e-09,-2.016863635087785e-11,3.21,0.95,1.1690274277498247e-06,-1.0874673534999602e-05,1.3414634466171265,-0.005859375,0.01123046875,-7.968414607107602e-07,0.001736492460851333,-7.913042688275846e-07,0.0016254069864390555,0.05581946758836183,0.05737548827738088
1623419888.579693,-1.4504179801911004e-09,-2.016863635087785e-11,3.21,0.95,1.1690274277498247e-06,-1.0874673534999602e-05,1.3414634466171265,-0.005859375,0.01123046875,-7.968414607107602e-07,0.001736492460851333,-7.913042688275846e-07,0.0016254069864390555,0.05581946758836183,0.05737548827738088
1623419888.579693,-1.4504179801911004e-09,-2.016863635087785e-11,3.21,0.95,1.1690274277498247e-06,-1.0874673534999602e-05,1.3414634466171265,-0.005859375,0.01123046875,-7.968414607107602e-07,0.001736492460851333,-7.913042688275846e-07,0.0016254069864390555,0.05581946758836183,0.05737548827738088
1623419888.579693,-1.4504179801911004e-09,-2.016863635087785e-11,3.22,0.95,1.1834597444249084e-06,-1.1008928595401812e-05,1.3414634466171265,-0.005859375,0.01123046875,-7.968414607107602e-07,0.001736492460851333,-7.913042688275846e-07,0.0016254069864390555,0.05581946758836183,0.05737548827738088
1623419888.579693,-1.4504179801911004e-09,-2.016863635087785e-11,3.22,0.95,1.1834597444249084e-06,-1.1008928595401812e-05,1.3414634466171265,-0.005859375,0.01123046875,-7.968414607107602e-07,0.001736492460851333,-7.922441868473485e-07,0.0016132361798858877,0.05581946758836183,0.05738007418002035
1623419888.579693,-1.784515334036311e-09,-1.2337728760057316e-11,3.22,0.95,1.1834597444249084e-06,-1.1008928595401812e-05,1.3414634466171265,-0.005859375,0.01123046875,-7.968414607107602e-07,0.001736492460851333,-7.922441868473485e-07,0.0016132361798858877,0.05581946758836183,0.05738007418002035
1623419888.579693,-1.784515334036311e-09,-1.2337728760057316e-11,3.22,0.95,1.1834597444249084e-06,-1.1008928595401812e-05,1.3414634466171265,-0.005859375,0.01123046875,-7.968414607107602e-07,0.001736492460851333,-7.922441868473485e-07,0.0016132361798858877,0.05581946758836183,0.05738007418002035
1623419888.579693,-1.784515334036311e-09,-1.2337728760057316e-11,3.22,0.95,1.1834597444249084e-06,-1.1008928595401812e-05,1.2804877758026123,-0.01416015625,0.00390625,-7.968414607107602e-07,0.001736492460851333,-7.922441868473485e-07,0.0016132361798858877,0.05581946758836183,0.05738007418002035
1623419888.579693,-1.784515334036311e-09,-1.2337728760057316e-11,3.22,0.95,1.1834597444249084e-06,-1.1008928595401812e-05,1.2804877758026123,-0.01416015625,0.00390625,-7.968414607107602e-07,0.001736492460851333,-7.922441868473485e-07,0.0016132361798858877,0.05581946758836183,0.05738007418002035
1623419888.579693,-1.784515334036311e-09,-1.2337728760057316e-11,3.22,0.95,1.1690274277498247e-06,-1.0874673534999602e-05,1.2804877758026123,-0.01416015625,0.00390625,-7.968414607107602e-07,0.001736492460851333,-7.928808820288117e-07,0.0016129063031230964,0.05581946758836183,0.057297681447280466
1623419888.669693,-1.3135888022626554e-10,-3.645373938235769e-12,3.22,0.95,1.1690274277498247e-06,-1.0874673534999602e-05,1.2804877758026123,-0.01416015625,0.00390625,-7.726746136375729e-07,0.0019810386241185356,-7.928808820288117e-07,0.0016129063031230964,0.055884411081558845,0.057297681447280466
1623419888.669693,-1.3135888022626554e-10,-3.645373938235769e-12,3.22,0.95,1.1690274277498247e-06,-1.0874673534999602e-05,1.2804877758026123,-0.01416015625,0.00390625,-7.726746136375729e-07,0.0019810386241185356,-7.928808820288117e-07,0.0016129063031230964,0.055884411081558845,0.057297681447280466
1623419888.669693,-1.3135888022626554e-10,-3.645373938235769e-12,3.22,0.95,1.1690274277498247e-06,-1.0874673534999602e-05,1.2804877758026123,-0.01416015625,0.00390625,-7.726746136375729e-07,0.0019810386241185356,-7.928808820288117e-07,0.0016129063031230964,0.055884411081558845,0.057297681447280466
1623419888.669693,-1.3135888022626554e-10,-3.645373938235769e-12,3.22,0.95,1.1690274277498247e-06,-1.0874673534999602e-05,1.2804877758026123,-0.01416015625,0.00390625,-7.726746136375729e-07,0.0019810386241185356,-7.898888138736857e-07,0.0017517249745421935,0.055884411081558845,0.057397064904129186
1623419888.669693,-1.3135888022626554e-10,-3.645373938235769e-12,3.22,0.96,1.1690274277498247e-06,-1.0874673534999602e-05,1.2804877758026123,-0.01416015625,0.00390625,-7.726746136375729e-07,0.0019810386241185356,-7.898888138736857e-07,0.0017517249745421935,0.055884411081558845,0.057397064904129186
1623419888.699693,-7.05584739102119e-10,4.613479213669802e-12,3.22,0.96,1.154942651737656e-06,-1.0743652637756895e-05,1.2804877758026123,-0.01416015625,0.00390625,-7.971551475690444e-07,0.0019164833873268241,-7.898888138736857e-07,0.0017517249745421935,0.055826477876081616,0.057397064904129186
