time,la_x,la_y,uwb_x,uwb_y,vel_linear_x,vel_angular_z,mpu_ang_vel_z,mpu_linear_acc_x,mpu_linear_acc_y,odom_linear_x,odom_angular_z,odom_filtered_linear_x,odom_filtered_angular_z,odom_yaw,odom_filtered_yaw
1623422007.182456,1.3469424843577181e-09,-5.326385439582535e-10,0.0,0.0,,,1.3414634466171265,-0.00634765625,0.00244140625,-6.377475933258389e-06,0.0021046041981151405,-6.377602022969939e-06,0.0018552437696930343,-0.06902630079563547,-0.06760640265339748
1623422007.182456,1.3469424843577181e-09,-5.326385439582535e-10,0.0,0.0,1.1547652320587076e-05,-0.00010742002632468939,1.3414634466171265,-0.00634765625,0.00244140625,-6.377475933258389e-06,0.0021046041981151405,-6.377602022969939e-06,0.0018552437696930343,-0.06902630079563547,-0.06760640265339748
1623422007.182456,1.3469424843577181e-09,-5.326385439582535e-10,0.0,0.0,1.1547652320587076e-05,-0.00010742002632468939,1.3414634466171265,-0.00634765625,0.00244140625,-6.377475933258389e-06,0.0021046041981151405,-6.377602022969939e-06,0.0018552437696930343,-0.06902630079563547,-0.06760640265339748
1623422007.182456,1.3469424843577181e-09,-5.326385439582535e-10,0.0,0.0,1.1547652320587076e-05,-0.00010742002632468939,1.3414634466171265,-0.00634765625,0.00244140625,-6.37788654471937e-06,0.0017447674747390323,-6.377602022969939e-06,0.0018552437696930343,-0.06903759185616208,-0.06760640265339748
1623422007.302456,1.3050814417661392e-09,-4.4161604544424865e-10,3.85,0.67,1.1547652320587076e-05,-0.00010742002632468939,1.3414634466171265,-0.00634765625,0.00244140625,-6.37788654471937e-06,0.0017447674747390323,-6.377520869893654e-06,0.0017303096955947953,-0.06903759185616208,-0.06749165657491057
1623422007.302456,1.3050814417661392e-09,-4.4161604544424865e-10,3.85,0.67,1.1547652320587076e-05,-0.00010742002632468939,1.3414634466171265,-0.00634765625,0.00244140625,-6.37788654471937e-06,0.0017447674747390323,-6.377520869893654e-06,0.0017303096955947953,-0.06903759185616208,-0.06749165657491057
1623422007.302456,1.3050814417661392e-09,-4.4161604544424865e-10,3.85,0.67,1.1547652320587076e-05,-0.00010742002632468939,1.3414634466171265,-0.00634765625,0.00244140625,-6.37788654471937e-06,0.0017447674747390323,-6.377520869893654e-06,0.0017303096955947953,-0.06903759185616208,-0.06749165657491057
1623422007.302456,1.3050814417661392e-09,-4.4161604544424865e-10,3.85,0.67,1.1547652320587076e-05,-0.00010742002632468939,1.3414634466171265,-0.00634765625,0.00244140625,-6.37788654471937e-06,0.0017447674747390323,-6.377520869893654e-06,0.0017303096955947953,-0.06903759185616208,-0.06749165657491057
1623422007.302456,1.3050814417661392e-09,-4.4161604544424865e-10,3.85,0.67,1.1547652320587076e-05,-0.00010742002632468939,1.3414634466171265,-0.00634765625,0.00341796875,-6.374713583518927e-06,0.001634423676456542,-6.377520869893654e-06,0.0017303096955947953,-0.06904362112163208,-0.06749165657491057
1623422007.362456,1.5568720273906724e-09,-3.5852180788973815e-10,3.85,0.67,1.1547652320587076e-05,-0.00010742002632468939,1.3414634466171265,-0.00634765625,0.00341796875,-6.374713583518927e-06,0.001634423676456542,-6.376957629160968e-06,0.001614221672624881,-0.06904362112163208,-0.06749624328578166
1623422007.362456,1.5568720273906724e-09,-3.5852180788973815e-10,3.85,0.67,1.1547652320587076e-05,-0.00010742002632468939,1.3414634466171265,-0.00634765625,0.00341796875,-6.374713583518927e-06,0.001634423676456542,-6.376957629160968e-06,0.001614221672624881,-0.06904362112163208,-0.06749624328578166
1623422007.362456,1.5568720273906724e-09,-3.5852180788973815e-10,3.85,0.67,1.1547652320587076e-05,-0.00010742002632468939,1.3414634466171265,-0.00634765625,0.00341796875,-6.374713583518927e-06,0.001634423676456542,-6.376957629160968e-06,0.001614221672624881,-0.06904362112163208,-0.06749624328578166
1623422007.362456,1.5568720273906724e-09,-3.5852180788973815e-10,3.85,0.67,1.1547652320587076e-05,-0.00010742002632468939,1.3414634466171265,-0.00634765625,0.00341796875,-6.374713583518927e-06,0.001634423676456542,-6.376957629160968e-06,0.001614221672624881,-0.06904362112163208,-0.06749624328578166
1623422007.422456,1.5229193530887482e-09,-2.820281992041859e-10,3.85,0.67,1.1547652320587076e-05,-0.00010742002632468939,1.3414634466171265,-0.00634765625,0.00341796875,-6.377235794316701e-06,0.0017695543274827213,-6.376929762693941e-06,0.0016006983203061412,-0.06903915686625903,-0.06750050936904711
1623422007.422456,1.5229193530887482e-09,-2.820281992041859e-10,3.81,0.66,1.1547652320587076e-05,-0.00010742002632468939,1.3414634466171265,-0.00634765625,0.00341796875,-6.377235794316701e-06,0.0017695543274827213,-6.376929762693941e-06,0.0016006983203061412,-0.06903915686625903,-0.06750050936904711
1623422007.422456,1.5229193530887482e-09,-2.820281992041859e-10,3.81,0.66,1.1547652320587076e-05,-0.00010742002632468939,1.3414634466171265,-0.00634765625,0.00341796875,-6.377235794316701e-06,0.0017695543274827213,-6.376929762693941e-06,0.0016006983203061412,-0.06903915686625903,-0.06750050936904711
1623422007.422456,1.5229193530887482e-09,-2.820281992041859e-10,3.81,0.66,1.1547652320587076e-05,-0.00010742002632468939,1.3414634466171265,-0.00634765625,0.00341796875,-6.377235794316701e-06,0.0017695543274827213,-6.376929762693941e-06,0.0016006983203061412,-0.06903915686625903,-0.06750050936904711
1623422007.422456,1.5229193530887482e-09,-2.820281992041859e-10,3.81,0.66,1.1547652320587076e-05,-0.00010742002632468939,1.3414634466171265,-0.00634765625,0.00341796875,-6.377235794316701e-06,0.0017695543274827213,-6.376929762693941e-06,0.0016006983203061412,-0.06903915686625903,-0.06750050936904711
1623422007.422456,1.4991414305605075e-09,-2.2851056483140335e-10,3.81,0.66,1.1836343219329137e-05,-0.00011010552407242358,1.3414634466171265,-0.00634765625,0.00341796875,-6.377235794316701e-06,0.0017695543274827213,-6.37697567340721e-06,0.0016015969734835588,-0.06903915686625903,-0.0675889676680616
1623422007.422456,1.4991414305605075e-09,-2.2851056483140335e-10,3.81,0.66,1.1836343219329137e-05,-0.00011010552407242358,1.2804877758026123,0.0009765625,0.0078125,-6.377235794316701e-06,0.0017695543274827213,-6.37697567340721e-06,0.0016015969734835588,-0.06903915686625903,-0.0675889676680616
1623422007.422456,1.4991414305605075e-09,-2.2851056483140335e-10,3.81,0.66,1.1836343219329137e-05,-0.00011010552407242358,1.2804877758026123,0.0009765625,0.0078125,-6.377235794316701e-06,0.0017695543274827213,-6.37697567340721e-06,0.0016015969734835588,-0.06903915686625903,-0.0675889676680616
1623422007.422456,1.4991414305605075e-09,-2.2851056483140335e-10,3.81,0.66,1.1836343219329137e-05,-0.00011010552407242358,1.2804877758026123,0.0009765625,0.0078125,-6.377235794316701e-06,0.0017695543274827213,-6.37697567340721e-06,0.0016015969734835588,-0.06903915686625903,-0.0675889676680616
1623422007.422456,1.4991414305605075e-09,-2.2851056483140335e-10,3.81,0.66,1.1836343219329137e-05,-0.00011010552407242358,1.2804877758026123,0.0009765625,0.0078125,-6.377235794316701e-06,0.0017695543274827213,-6.37697567340721e-06,0.0016015969734835588,-0.06903915686625903,-0.0675889676680616
1623422007.484456,2.762759848657202e-09,-1.745725632173608e-10,3.81,0.66,1.1836343219329137e-05,-0.00011010552407242358,1.2804877758026123,0.0009765625,0.0078125,-6.361281265831518e-06,0.0019374775390070872,-6.374452606153058e-06,0.0016937187451103418,-0.06903112650431023,-0.06756965094266676
1623422007.484456,2.762759848657202e-09,-1.745725632173608e-10,3.82,0.65,1.1547652320587076e-05,-0.00010742002632468939,1.2804877758026123,0.0009765625,0.0078125,-6.361281265831518e-06,0.0019374775390070872,-6.374452606153058e-06,0.0016937187451103418,-0.06903112650431023,-0.06756965094266676
1623422007.484456,2.762759848657202e-09,-1.745725632173608e-10,3.82,0.65,1.1547652320587076e-05,-0.00010742002632468939,1.2804877758026123,0.0009765625,0.0078125,-6.361281265831518e-06,0.0019374775390070872,-6.374452606153058e-06,0.0016937187451103418,-0.06903112650431023,-0.06756965094266676
1623422007.484456,2.762759848657202e-09,-1.745725632173608e-10,3.82,0.65,1.1547652320587076e-05,-0.00010742002632468939,1.2804877758026123,0.0009765625,0.0078125,-6.361281265831518e-06,0.0019374775390070872,-6.374452606153058e-06,0.0016937187451103418,-0.06903112650431023,-0.06756965094266676
1623422007.484456,2.762759848657202e-09,-1.745725632173608e-10,3.82,0.65,1.1547652320587076e-05,-0.00010742002632468939,1.2804877758026123,0.0009765625,0.0078125,-6.361281265831518e-06,0.0019374775390070872,-6.374452606153058e-06,0.0016937187451103418,-0.06903112650431023,-0.06756965094266676
1623422007.542456,2.9751012960884347e-09,-1.2168583447550548e-10,3.82,0.65,1.1547652320587076e-05,-0.00010742002632468939,1.2804877758026123,0.0009765625,0.0078125,-6.3717320322428796e-06,0.0018196173286888463,-6.3738847098259685e-06,0.0016802691418434546,-0.06903751979634813,-0.06756288602926913
1623422007.542456,2.9751012960884347e-09,-1.2168583447550548e-10,3.82,0.65,1.1547652320587076e-05,-0.00010742002632468939,1.3414634466171265,-0.0146484375,0.0068359375,-6.3717320322428796e-06,0.0018196173286888463,-6.3738847098259685e-06,0.0016802691418434546,-0.06903751979634813,-0.06756288602926913
1623422007.542456,2.9751012960884347e-09,-1.2168583447550548e-10,3.82,0.65,1.1547652320587076e-05,-0.00010742002632468939,1.3414634466171265,-0.0146484375,0.0068359375,-6.3717320322428796e-06,0.0018196173286888463,-6.3738847098259685e-06,0.0016802691418434546,-0.06903751979634813,-0.06756288602926913
1623422007.542456,2.9751012960884347e-09,-1.2168583447550548e-10,3.82,0.65,1.1547652320587076e-05,-0.00010742002632468939,1.3414634466171265,-0.0146484375,0.0068359375,-6.3717320322428796e-06,0.0018196173286888463,-6.3738847098259685e-06,0.0016802691418434546,-0.06903751979634813,-0.06756288602926913
1623422007.542456,2.9751012960884347e-09,-1.2168583447550548e-10,3.82,0.65,1.1547652320587076e-05,-0.00010742002632468939,1.3414634466171265,-0.0146484375,0.0068359375,-6.3717320322428796e-06,0.0018196173286888463,-6.3738847098259685e-06,0.0016802691418434546,-0.06903751979634813,-0.06756288602926913
1623422007.602456,2.9707620675381137e-09,-7.011175908546622e-11,3.82,0.65,1.1547652320587076e-05,-0.00010742002632468939,1.3414634466171265,-0.0146484375,0.0068359375,-6.3737569732912535e-06,0.0018412794880615514,-6.3738847098259685e-06,0.0016802691418434546,-0.06903659199367963,-0.06756288602926913
1623422007.602456,2.9707620675381137e-09,-7.011175908546622e-11,3.84,0.63,1.1547652320587076e-05,-0.00010742002632468939,1.3414634466171265,-0.0146484375,0.0068359375,-6.3737569732912535e-06,0.0018412794880615514,-6.373714566838323e-06,0.001688347334904641,-0.06903659199367963,-0.06755296570637045
1623422007.602456,2.9707620675381137e-09,-7.011175908546622e-11,3.84,0.63,1.1547652320587076e-05,-0.00010742002632468939,1.3414634466171265,-0.0146484375,0.0068359375,-6.3737569732912535e-06,0.0018412794880615514,-6.373714566838323e-06,0.001688347334904641,-0.06903659199367963,-0.06755296570637045
1623422007.602456,2.9707620675381137e-09,-7.011175908546622e-11,3.84,0.63,1.1547652320587076e-05,-0.00010742002632468939,1.3414634466171265,-0.0146484375,0.0068359375,-6.3737569732912535e-06,0.0018412794880615514,-6.373714566838323e-06,0.001688347334904641,-0.06903659199367963,-0.06755296570637045
1623422007.602456,2.9707620675381137e-09,-7.011175908546622e-11,3.84,0.63,1.1547652320587076e-05,-0.00010742002632468939,1.3414634466171265,-0.0146484375,0.0068359375,-6.3737569732912535e-06,0.0018412794880615514,-6.373714566838323e-06,0.001688347334904641,-0.06903659199367963,-0.06755296570637045
1623422007.662456,3.190425130287322e-09,-2.0839285898264446e-11,3.84,0.63,1.1547652320587076e-05,-0.00010742002632468939,1.2804877758026123,-0.00732421875,-0.0009765625,-6.370979393087699e-06,0.0017250407394604945,-6.3731148773436824e-06,0.0016318029440725863,-0.06904080448392601,-0.0675484046631554
1623422007.662456,3.190425130287322e-09,-2.0839285898264446e-11,3.84,0.63,1.1547652320587076e-05,-0.00010742002632468939,1.2804877758026123,-0.00732421875,-0.0009765625,-6.370979393087699e-06,0.0017250407394604945,-6.3731148773436824e-06,0.0016318029440725863,-0.06904080448392601,-0.0675484046631554
1623422007.662456,3.190425130287322e-09,-2.0839285898264446e-11,3.84,0.63,1.1547652320587076e-05,-0.00010742002632468939,1.2804877758026123,-0.00732421875,-0.0009765625,-6.370979393087699e-06,0.0017250407394604945,-6.3731148773436824e-06,0.0016318029440725863,-0.06904080448392601,-0.0675484046631554
1623422007.662456,3.190425130287322e-09,-2.0839285898264446e-11,3.84,0.63,1.1547652320587076e-05,-0.00010742002632468939,1.2804877758026123,-0.00732421875,-0.0009765625,-6.370979393087699e-06,0.0017250407394604945,-6.3731148773436824e-06,0.0016318029440725863,-0.06904080448392601,-0.0675484046631554
1623422007.662456,3.190425130287322e-09,-2.0839285898264446e-11,3.84,0.63,1.1547652320587076e-05,-0.00010742002632468939,1.2804877758026123,-0.00732421875,-0.0009765625,-6.370979393087699e-06,0.0017250407394604945,-6.3731148773436824e-06,0.0016318029440725863,-0.06904080448392601,-0.0675484046631554
1623422007.722456,3.2673186652670706e-09,2.599346529488157e-11,3.84,0.63,1.1547652320587076e-05,-0.00010742002632468939,1.2804877758026123,-0.00732421875,-0.0009765625,-6.37203730782433e-06,0.0015625660601934612,-6.372775891849289e-06,0.0015316087038890725,-0.0690472763799362,-0.0675519938645753
1623422007.722456,3.2673186652670706e-09,2.599346529488157e-11,3.85,0.62,1.1547652320587076e-05,-0.00010742002632468939,1.2804877758026123,-0.00732421875,-0.0009765625,-6.37203730782433e-06,0.0015625660601934612,-6.372775891849289e-06,0.0015316087038890725,-0.0690472763799362,-0.0675519938645753
1623422007.722456,3.2673186652670706e-09,2.599346529488157e-11,3.85,0.62,1.1547652320587076e-05,-0.00010742002632468939,1.2804877758026123,-0.00732421875,-0.0009765625,-6.37203730782433e-06,0.0015625660601934612,-6.372775891849289e-06,0.0015316087038890725,-0.0690472763799362,-0.0675519938645753
1623422007.722456,3.2673186652670706e-09,2.599346529488157e-11,3.85,0.62,1.1547652320587076e-05,-0.00010742002632468939,1.2804877758026123,-0.00732421875,-0.0009765625,-6.37203730782433e-06,0.0015625660601934612,-6.372775891849289e-06,0.0015316087038890725,-0.0690472763799362,-0.0675519938645753
1623422007.722456,3.2673186652670706e-09,2.599346529488157e-11,3.85,0.62,1.1547652320587076e-05,-0.00010742002632468939,1.2804877758026123,-0.00732421875,-0.0009765625,-6.37203730782433e-06,0.0015625660601934612,-6.372775891849289e-06,0.0015316087038890725,-0.0690472763799362,-0.0675519938645753
1623422007.722456,3.3222520323139533e-09,5.939031319154117e-11,3.85,0.62,1.1272709343757015e-05,-0.00010486241080798209,1.402438998222351,-0.01171875,0.00732421875,-6.37203730782433e-06,0.0015625660601934612,-6.372670479722508e-06,0.0014966553165754399,-0.0690472763799362,-0.0676377018494912
1623422007.722456,3.3222520323139533e-09,5.939031319154117e-11,3.85,0.62,1.1272709343757015e-05,-0.00010486241080798209,1.402438998222351,-0.01171875,0.00732421875,-6.37203730782433e-06,0.0015625660601934612,-6.372670479722508e-06,0.0014966553165754399,-0.0690472763799362,-0.0676377018494912
1623422007.722456,3.3222520323139533e-09,5.939031319154117e-11,3.85,0.62,1.1272709343757015e-05,-0.00010486241080798209,1.402438998222351,-0.01171875,0.00732421875,-6.37203730782433e-06,0.0015625660601934612,-6.372670479722508e-06,0.0014966553165754399,-0.0690472763799362,-0.0676377018494912
1623422007.722456,3.3222520323139533e-09,5.939031319154117e-11,3.85,0.62,1.1272709343757015e-05,-0.00010486241080798209,1.402438998222351,-0.01171875,0.00732421875,-6.37203730782433e-06,0.0015625660601934612,-6.372670479722508e-06,0.0014966553165754399,-0.0690472763799362,-0.0676377018494912
1623422007.722456,3.3222520323139533e-09,5.939031319154117e-11,3.85,0.62,1.1272709343757015e-05,-0.00010486241080798209,1.402438998222351,-0.01171875,0.00732421875,-6.37203730782433e-06,0.0015625660601934612,-6.372670479722508e-06,0.0014966553165754399,-0.0690472763799362,-0.0676377018494912
1623422007.782456,3.367575609282393e-09,9.325801381798746e-11,3.85,0.62,1.1272709343757015e-05,-0.00010486241080798209,1.402438998222351,-0.01171875,0.00732421875,-6.371893014259716e-06,0.0018232548659138658,-6.372384492963125e-06,0.0015848216125503593,-0.06904074341095291,-0.06762605354264799
1623422007.782456,3.367575609282393e-09,9.325801381798746e-11,3.84,0.63,1.1547652320587076e-05,-0.00010742002632468939,1.402438998222351,-0.01171875,0.00732421875,-6.371893014259716e-06,0.0018232548659138658,-6.372384492963125e-06,0.0015848216125503593,-0.06904074341095291,-0.06762605354264799
1623422007.782456,3.367575609282393e-09,9.325801381798746e-11,3.84,0.63,1.1547652320587076e-05,-0.00010742002632468939,1.402438998222351,-0.01171875,0.00732421875,-6.371893014259716e-06,0.0018232548659138658,-6.372384492963125e-06,0.0015848216125503593,-0.06904074341095291,-0.06762605354264799
1623422007.782456,3.367575609282393e-09,9.325801381798746e-11,3.84,0.63,1.1547652320587076e-05,-0.00010742002632468939,1.402438998222351,-0.01171875,0.00732421875,-6.371893014259716e-06,0.0018232548659138658,-6.372384492963125e-06,0.0015848216125503593,-0.06904074341095291,-0.06762605354264799
1623422007.782456,3.367575609282393e-09,9.325801381798746e-11,3.84,0.63,1.1547652320587076e-05,-0.00010742002632468939,1.402438998222351,-0.01171875,0.00732421875,-6.371893014259716e-06,0.0018232548659138658,-6.372384492963125e-06,0.0015848216125503593,-0.06904074341095291,-0.06762605354264799
1623422007.842456,3.6050911141722363e-09,1.2660418810737587e-10,3.84,0.63,1.1547652320587076e-05,-0.00010742002632468939,1.3414634466171265,-0.0068359375,0.0009765625,-6.3692662066004834e-06,0.001708762619963048,-6.371728896849885e-06,0.0015739465703051658,-0.06904304102182049,-0.0676162973686902
1623422007.842456,3.6050911141722363e-09,1.2660418810737587e-10,3.84,0.63,1.1547652320587076e-05,-0.00010742002632468939,1.3414634466171265,-0.0068359375,0.0009765625,-6.3692662066004834e-06,0.001708762619963048,-6.371728896849885e-06,0.0015739465703051658,-0.06904304102182049,-0.0676162973686902
1623422007.842456,3.6050911141722363e-09,1.2660418810737587e-10,3.84,0.63,1.1547652320587076e-05,-0.00010742002632468939,1.3414634466171265,-0.0068359375,0.0009765625,-6.3692662066004834e-06,0.001708762619963048,-6.371728896849885e-06,0.0015739465703051658,-0.06904304102182049,-0.0676162973686902
1623422007.842456,3.6050911141722363e-09,1.2660418810737587e-10,3.84,0.63,1.1547652320587076e-05,-0.00010742002632468939,1.3414634466171265,-0.0068359375,0.0009765625,-6.3692662066004834e-06,0.001708762619963048,-6.371728896849885e-06,0.0015739465703051658,-0.06904304102182049,-0.0676162973686902
1623422007.842456,3.6050911141722363e-09,1.2660418810737587e-10,3.84,0.63,1.1547652320587076e-05,-0.00010742002632468939,1.3414634466171265,-0.0068359375,0.0009765625,-6.3692662066004834e-06,0.001708762619963048,-6.371728896849885e-06,0.0015739465703051658,-0.06904304102182049,-0.0676162973686902
1623422007.902456,3.4684450368376316e-09,1.5914322089497593e-10,3.84,0.63,1.1547652320587076e-05,-0.00010742002632468939,1.3414634466171265,-0.0068359375,0.0009765625,-6.3731450216118235e-06,0.0018227994193482722,-6.371773512208727e-06,0.0016204429080258263,-0.0690384010366839,-0.06760416996364757
1623422007.902456,3.4684450368376316e-09,1.5914322089497593e-10,3.84,0.63,1.1547652320587076e-05,-0.00010742002632468939,1.3414634466171265,-0.0068359375,0.0009765625,-6.3731450216118235e-06,0.0018227994193482722,-6.371773512208727e-06,0.0016204429080258263,-0.0690384010366839,-0.06760416996364757
1623422007.902456,3.4684450368376316e-09,1.5914322089497593e-10,3.84,0.64,1.1547652320587076e-05,-0.00010742002632468939,1.3414634466171265,-0.0068359375,0.0009765625,-6.3731450216118235e-06,0.0018227994193482722,-6.371773512208727e-06,0.0016204429080258263,-0.0690384010366839,-0.06760416996364757
1623422007.902456,3.4684450368376316e-09,1.5914322089497593e-10,3.84,0.64,1.1547652320587076e-05,-0.00010742002632468939,1.3414634466171265,-0.0068359375,0.0009765625,-6.3731450216118235e-06,0.0018227994193482722,-6.371773512208727e-06,0.0016204429080258263,-0.0690384010366839,-0.06760416996364757
1623422007.902456,3.4684450368376316e-09,1.5914322089497593e-10,3.84,0.64,1.1547652320587076e-05,-0.00010742002632468939,1.3414634466171265,-0.0068359375,0.0009765625,-6.3731450216118235e-06,0.0018227994193482722,-6.371773512208727e-06,0.0016204429080258263,-0.0690384010366839,-0.06760416996364757
1623422007.962395,3.5025608860048843e-09,1.8735652771671566e-10,3.84,0.64,1.1547652320587076e-05,-0.00010742002632468939,1.3414634466171265,-0.0068359375,0.0009765625,-6.371165015917966e-06,0.0017077306441582668,-6.3715004875249415e-06,0.0015833745354397449,-0.0690420707544066,-0.06759687058030682
1623422007.962395,3.5025608860048843e-09,1.8735652771671566e-10,3.84,0.64,1.1547652320587076e-05,-0.00010742002632468939,1.402438998222351,-0.00830078125,0.00341796875,-6.371165015917966e-06,0.0017077306441582668,-6.3715004875249415e-06,0.0015833745354397449,-0.0690420707544066,-0.06759687058030682
1623422007.962395,3.5025608860048843e-09,1.8735652771671566e-10,3.84,0.64,1.1547652320587076e-05,-0.00010742002632468939,1.402438998222351,-0.00830078125,0.00341796875,-6.371165015917966e-06,0.0017077306441582668,-6.3715004875249415e-06,0.0015833745354397449,-0.0690420707544066,-0.06759687058030682
1623422007.962395,3.5025608860048843e-09,1.8735652771671566e-10,3.84,0.64,1.1547652320587076e-05,-0.00010742002632468939,1.402438998222351,-0.00830078125,0.00341796875,-6.371165015917966e-06,0.0017077306441582668,-6.3715004875249415e-06,0.0015833745354397449,-0.0690420707544066,-0.06759687058030682
1623422007.962395,3.5025608860048843e-09,1.8735652771671566e-10,3.84,0.64,1.1547652320587076e-05,-0.00010742002632468939,1.402438998222351,-0.00830078125,0.00341796875,-6.371165015917966e-06,0.0017077306441582668,-6.3715004875249415e-06,0.0015833745354397449,-0.0690420707544066,-0.06759687058030682
1623422008.022395,3.1804855462638608e-09,2.133178951558805e-10,3.84,0.64,1.1547652320587076e-05,-0.00010742002632468939,1.402438998222351,-0.00830078125,0.00341796875,-6.3750169455557425e-06,0.0017459961498758668,-6.371906167916636e-06,0.0015807142977509031,-0.06904024722428444,-0.06759069865115319
1623422008.022395,3.1804855462638608e-09,2.133178951558805e-10,3.84,0.65,1.1547652320587076e-05,-0.00010742002632468939,1.402438998222351,-0.00830078125,0.00341796875,-6.3750169455557425e-06,0.0017459961498758668,-6.371906167916636e-06,0.0015807142977509031,-0.06904024722428444,-0.06759069865115319
1623422008.022395,3.1804855462638608e-09,2.133178951558805e-10,3.84,0.65,1.1547652320587076e-05,-0.00010742002632468939,1.402438998222351,-0.00830078125,0.00341796875,-6.3750169455557425e-06,0.0017459961498758668,-6.371906167916636e-06,0.0015807142977509031,-0.06904024722428444,-0.06759069865115319
1623422008.022395,3.1804855462638608e-09,2.133178951558805e-10,3.84,0.65,1.1547652320587076e-05,-0.00010742002632468939,1.402438998222351,-0.00830078125,0.00341796875,-6.3750169455557425e-06,0.0017459961498758668,-6.371906167916636e-06,0.0015807142977509031,-0.06904024722428444,-0.06759069865115319
1623422008.022395,3.1804855462638608e-09,2.133178951558805e-10,3.84,0.65,1.1547652320587076e-05,-0.00010742002632468939,1.402438998222351,-0.00830078125,0.00341796875,-6.3750169455557425e-06,0.0017459961498758668,-6.371906167916636e-06,0.0015807142977509031,-0.06904024722428444,-0.06759069865115319
1623422008.022395,2.94975590270485e-09,2.3185086458598533e-10,3.84,0.65,1.1547652320587076e-05,-0.00010742002632468939,1.3414634466171265,-0.00732421875,0.0029296875,-6.3750169455557425e-06,0.0017459961498758668,-6.3723473478919315e-06,0.0015850118734434624,-0.06904024722428444,-0.06766936881077021
1623422008.022395,2.94975590270485e-09,2.3185086458598533e-10,3.84,0.65,1.1547652320587076e-05,-0.00010742002632468939,1.3414634466171265,-0.00732421875,0.0029296875,-6.3750169455557425e-06,0.0017459961498758668,-6.3723473478919315e-06,0.0015850118734434624,-0.06904024722428444,-0.06766936881077021
1623422008.022395,2.94975590270485e-09,2.3185086458598533e-10,3.84,0.65,1.1547652320587076e-05,-0.00010742002632468939,1.3414634466171265,-0.00732421875,0.0029296875,-6.3750169455557425e-06,0.0017459961498758668,-6.3723473478919315e-06,0.0015850118734434624,-0.06904024722428444,-0.06766936881077021
1623422008.022395,2.94975590270485e-09,2.3185086458598533e-10,3.84,0.65,1.1547652320587076e-05,-0.00010742002632468939,1.3414634466171265,-0.00732421875,0.0029296875,-6.3750169455557425e-06,0.0017459961498758668,-6.3723473478919315e-06,0.0015850118734434624,-0.06904024722428444,-0.06766936881077021
1623422008.022395,2.94975590270485e-09,2.3185086458598533e-10,3.84,0.65,1.1547652320587076e-05,-0.00010742002632468939,1.3414634466171265,-0.00732421875,0.0029296875,-6.334116736507277e-06,0.0017728903225592936,-6.3723473478919315e-06,0.0015850118734434624,-0.0690296764189041,-0.06766936881077021
1623422008.0883949,5.959376225428566e-09,2.5038311450432927e-10,3.84,0.65,1.1547652320587076e-05,-0.00010742002632468939,1.3414634466171265,-0.00732421875,0.0029296875,-6.334116736507277e-06,0.0017728903225592936,-6.366413266226901e-06,0.0016221604603679305,-0.0690296764189041,-0.06763480804145779
1623422008.0883949,5.959376225428566e-09,2.5038311450432927e-10,3.84,0.65,1.1547652320587076e-05,-0.00010742002632468939,1.3414634466171265,-0.00732421875,0.0029296875,-6.334116736507277e-06,0.0017728903225592936,-6.366413266226901e-06,0.0016221604603679305,-0.0690296764189041,-0.06763480804145779
1623422008.0883949,5.959376225428566e-09,2.5038311450432927e-10,3.84,0.65,1.1547652320587076e-05,-0.00010742002632468939,1.3414634466171265,-0.00732421875,0.0029296875,-6.334116736507277e-06,0.0017728903225592936,-6.366413266226901e-06,0.0016221604603679305,-0.0690296764189041,-0.06763480804145779
1623422008.0883949,5.959376225428566e-09,2.5038311450432927e-10,3.84,0.65,1.1547652320587076e-05,-0.00010742002632468939,1.3414634466171265,-0.00732421875,0.0029296875,-6.334116736507277e-06,0.0017728903225592936,-6.366413266226901e-06,0.0016221604603679305,-0.0690296764189041,-0.06763480804145779
1623422008.0883949,5.959376225428566e-09,2.5038311450432927e-10,3.82,0.66,1.1547652320587076e-05,-0.00010742002632468939,1.3414634466171265,-0.005859375,0.00732421875,-6.371998743383133e-06,0.0016720543873471809,-6.366413266226901e-06,0.0016221604603679305,-0.06904356817621142,-0.06763480804145779
1623422008.142395,5.480232056819413e-09,2.6858571610895285e-10,3.82,0.66,1.1547652320587076e-05,-0.00010742002632468939,1.3414634466171265,-0.005859375,0.00732421875,-6.371998743383133e-06,0.0016720543873471809,-6.367004249597939e-06,0.0015851469216009804,-0.06904356817621142,-0.06763253649814034
1623422008.142395,5.480232056819413e-09,2.6858571610895285e-10,3.82,0.66,1.1547652320587076e-05,-0.00010742002632468939,1.3414634466171265,-0.005859375,0.00732421875,-6.371998743383133e-06,0.0016720543873471809,-6.367004249597939e-06,0.0015851469216009804,-0.06904356817621142,-0.06763253649814034
1623422008.142395,5.480232056819413e-09,2.6858571610895285e-10,3.82,0.66,1.1547652320587076e-05,-0.00010742002632468939,1.3414634466171265,-0.005859375,0.00732421875,-6.371998743383133e-06,0.0016720543873471809,-6.367004249597939e-06,0.0015851469216009804,-0.06904356817621142,-0.06763253649814034
1623422008.142395,5.480232056819413e-09,2.6858571610895285e-10,3.82,0.66,1.1547652320587076e-05,-0.00010742002632468939,1.3414634466171265,-0.005859375,0.00732421875,-6.371998743383133e-06,0.0016720543873471809,-6.367004249597939e-06,0.0015851469216009804,-0.06904356817621142,-0.06763253649814034
1623422008.142395,5.480232056819413e-09,2.6858571610895285e-10,3.82,0.66,1.1547652320587076e-05,-0.00010742002632468939,1.3414634466171265,-0.005859375,0.00732421875,-6.371998743383133e-06,0.0016720543873471809,-6.367004249597939e-06,0.0015851469216009804,-0.06904356817621142,-0.06763253649814034
1623422008.202395,4.68994813440807e-09,2.867300294192529e-10,3.84,0.65,1.1547652320587076e-05,-0.00010742002632468939,1.3414634466171265,-0.005859375,0.00732421875,-6.376143987314962e-06,0.0014587009501624809,-6.3681810651908e-06,0.0014727407727052563,-0.06905140116577924,-0.06762960299282259
1623422008.202395,4.68994813440807e-09,2.867300294192529e-10,3.84,0.65,1.1547652320587076e-05,-0.00010742002632468939,1.3414634466171265,-0.005859375,0.00732421875,-6.376143987314962e-06,0.0014587009501624809,-6.3681810651908e-06,0.0014727407727052563,-0.06905140116577924,-0.06762960299282259
1623422008.202395,4.68994813440807e-09,2.867300294192529e-10,3.84,0.65,1.1836343219329137e-05,-0.00011010552407242358,1.3414634466171265,-0.005859375,0.00732421875,-6.376143987314962e-06,0.0014587009501624809,-6.3681810651908e-06,0.0014727407727052563,-0.06905140116577924,-0.06762960299282259
1623422008.202395,4.68994813440807e-09,2.867300294192529e-10,3.84,0.65,1.1836343219329137e-05,-0.00011010552407242358,1.3414634466171265,-0.005859375,0.00732421875,-6.376143987314962e-06,0.0014587009501624809,-6.3681810651908e-06,0.0014727407727052563,-0.06905140116577924,-0.06762960299282259
1623422008.202395,4.68994813440807e-09,2.867300294192529e-10,3.84,0.65,1.1836343219329137e-05,-0.00011010552407242358,1.2804877758026123,-0.0068359375,0.0,-6.373301280329695e-06,0.0013666377785284975,-6.3681810651908e-06,0.0014727407727052563,-0.06905669816901143,-0.06762960299282259
1623422008.262395,4.230025686143477e-09,3.0371310653282493e-10,3.84,0.65,1.1836343219329137e-05,-0.00011010552407242358,1.2804877758026123,-0.0068359375,0.0,-6.373301280329695e-06,0.0013666377785284975,-6.368776643061228e-06,0.0013688519457698335,-0.06905669816901143,-0.06763387922106943
1623422008.262395,4.230025686143477e-09,3.0371310653282493e-10,3.84,0.65,1.1836343219329137e-05,-0.00011010552407242358,1.2804877758026123,-0.0068359375,0.0,-6.373301280329695e-06,0.0013666377785284975,-6.368776643061228e-06,0.0013688519457698335,-0.06905669816901143,-0.06763387922106943
1623422008.262395,4.230025686143477e-09,3.0371310653282493e-10,3.84,0.65,1.1836343219329137e-05,-0.00011010552407242358,1.2804877758026123,-0.0068359375,0.0,-6.373301280329695e-06,0.0013666377785284975,-6.368776643061228e-06,0.0013688519457698335,-0.06905669816901143,-0.06763387922106943
1623422008.262395,4.230025686143477e-09,3.0371310653282493e-10,3.84,0.65,1.1547652320587076e-05,-0.00010742002632468939,1.2804877758026123,-0.0068359375,0.0,-6.373301280329695e-06,0.0013666377785284975,-6.368776643061228e-06,0.0013688519457698335,-0.06905669816901143,-0.06763387922106943
1623422008.262395,4.230025686143477e-09,3.0371310653282493e-10,3.84,0.65,1.1547652320587076e-05,-0.00010742002632468939,1.2804877758026123,-0.0068359375,0.0,-6.375212284142499e-06,0.0015669669475057457,-6.368776643061228e-06,0.0013688519457698335,-0.06904967080515247,-0.06763387922106943
1623422008.322395,3.652395102080705e-09,3.1940131576369343e-10,3.84,0.65,1.1547652320587076e-05,-0.00010742002632468939,1.2804877758026123,-0.0068359375,0.0,-6.375212284142499e-06,0.0015669669475057457,-6.369625603009033e-06,0.0013831513204463435,-0.06904967080515247,-0.06763637017042265
1623422008.322395,3.652395102080705e-09,3.1940131576369343e-10,3.86,0.66,1.1547652320587076e-05,-0.00010742002632468939,1.2804877758026123,-0.0068359375,0.0,-6.375212284142499e-06,0.0015669669475057457,-6.369625603009033e-06,0.0013831513204463435,-0.06904967080515247,-0.06763637017042265
1623422008.322395,3.652395102080705e-09,3.1940131576369343e-10,3.86,0.66,1.1547652320587076e-05,-0.00010742002632468939,1.2804877758026123,-0.0068359375,0.0,-6.375212284142499e-06,0.0015669669475057457,-6.369625603009033e-06,0.0013831513204463435,-0.06904967080515247,-0.06763637017042265
1623422008.322395,3.652395102080705e-09,3.1940131576369343e-10,3.86,0.66,1.1547652320587076e-05,-0.00010742002632468939,1.2804877758026123,-0.0068359375,0.0,-6.375212284142499e-06,0.0015669669475057457,-6.369625603009033e-06,0.0013831513204463435,-0.06904967080515247,-0.06763637017042265
1623422008.322395,3.652395102080705e-09,3.1940131576369343e-10,3.86,0.66,1.1547652320587076e-05,-0.00010742002632468939,1.2195122241973877,-0.0087890625,0.00732421875,-6.375212284142499e-06,0.0015669669475057457,-6.369625603009033e-06,0.0013831513204463435,-0.06904967080515247,-0.06763637017042265
1623422008.322395,3.2382528575251517e-09,3.3058295835601716e-10,3.86,0.66,1.1547652320587076e-05,-0.00010742002632468939,1.2195122241973877,-0.0087890625,0.00732421875,-6.375212284142499e-06,0.0015669669475057457,-6.370416253815242e-06,0.0013942136460971253,-0.06904967080515247,-0.06771205926659855
1623422008.322395,3.2382528575251517e-09,3.3058295835601716e-10,3.86,0.66,1.1547652320587076e-05,-0.00010742002632468939,1.2195122241973877,-0.0087890625,0.00732421875,-6.375212284142499e-06,0.0015669669475057457,-6.370416253815242e-06,0.0013942136460971253,-0.06904967080515247,-0.06771205926659855
1623422008.322395,3.2382528575251517e-09,3.3058295835601716e-10,3.86,0.66,1.1547652320587076e-05,-0.00010742002632468939,1.2195122241973877,-0.0087890625,0.00732421875,-6.375212284142499e-06,0.0015669669475057457,-6.370416253815242e-06,0.0013942136460971253,-0.06904967080515247,-0.06771205926659855
1623422008.322395,3.2382528575251517e-09,3.3058295835601716e-10,3.86,0.66,1.1547652320587076e-05,-0.00010742002632468939,1.2195122241973877,-0.0087890625,0.00732421875,-6.375212284142499e-06,0.0015669669475057457,-6.370416253815242e-06,0.0013942136460971253,-0.06904967080515247,-0.06771205926659855
1623422008.322395,3.2382528575251517e-09,3.3058295835601716e-10,3.86,0.66,1.1547652320587076e-05,-0.00010742002632468939,1.2195122241973877,-0.0087890625,0.00732421875,-6.373132433956672e-06,0.0017772748372117794,-6.370416253815242e-06,0.0013942136460971253,-0.06904355333237906,-0.06771205926659855
1623422008.382395,3.0103591225898456e-09,3.412743376242413e-10,3.86,0.66,1.1547652320587076e-05,-0.00010742002632468939,1.2195122241973877,-0.0087890625,0.00732421875,-6.373132433956672e-06,0.0017772748372117794,-6.370416253815242e-06,0.0013942136460971253,-0.06904355333237906,-0.06771205926659855
1623422008.382395,3.0103591225898456e-09,3.412743376242413e-10,3.87,0.66,1.1547652320587076e-05,-0.00010742002632468939,1.2195122241973877,-0.0087890625,0.00732421875,-6.373132433956672e-06,0.0017772748372117794,-6.370655875222968e-06,0.0015076424777073956,-0.06904355333237906,-0.06769857846368704
1623422008.382395,3.0103591225898456e-09,3.412743376242413e-10,3.87,0.66,1.1547652320587076e-05,-0.00010742002632468939,1.2195122241973877,-0.0087890625,0.00732421875,-6.373132433956672e-06,0.0017772748372117794,-6.370655875222968e-06,0.0015076424777073956,-0.06904355333237906,-0.06769857846368704
1623422008.382395,3.0103591225898456e-09,3.412743376242413e-10,3.87,0.66,1.1547652320587076e-05,-0.00010742002632468939,1.2195122241973877,-0.0087890625,0.00732421875,-6.373132433956672e-06,0.0017772748372117794,-6.370655875222968e-06,0.0015076424777073956,-0.06904355333237906,-0.06769857846368704
1623422008.442395,3.034763031687858e-09,3.5127281819297935e-10,3.87,0.66,1.1547652320587076e-05,-0.00010742002632468939,1.2195122241973877,-0.0087890625,0.00732421875,-6.3701749358601e-06,0.0016656429949074942,-6.370428858396238e-06,0.0015110615647984777,-0.0690454065109639,-0.0676865961452968
1623422008.442395,3.034763031687858e-09,3.5127281819297935e-10,3.87,0.66,1.1547652320587076e-05,-0.00010742002632468939,1.3414634466171265,-0.0048828125,0.00537109375,-6.3701749358601e-06,0.0016656429949074942,-6.370428858396238e-06,0.0015110615647984777,-0.0690454065109639,-0.0676865961452968
1623422008.442395,3.034763031687858e-09,3.5127281819297935e-10,3.87,0.66,1.1547652320587076e-05,-0.00010742002632468939,1.3414634466171265,-0.0048828125,0.00537109375,-6.3701749358601e-06,0.0016656429949074942,-6.370428858396238e-06,0.0015110615647984777,-0.0690454065109639,-0.0676865961452968
1623422008.442395,3.034763031687858e-09,3.5127281819297935e-10,3.87,0.66,1.1547652320587076e-05,-0.00010742002632468939,1.3414634466171265,-0.0048828125,0.00537109375,-6.3701749358601e-06,0.0016656429949074942,-6.370428858396238e-06,0.0015110615647984777,-0.0690454065109639,-0.0676865961452968
1623422008.442395,3.034763031687858e-09,3.5127281819297935e-10,3.87,0.66,1.1547652320587076e-05,-0.00010742002632468939,1.3414634466171265,-0.0048828125,0.00537109375,-6.3701749358601e-06,0.0016656429949074942,-6.370428858396238e-06,0.0015110615647984777,-0.0690454065109639,-0.0676865961452968
1623422008.442395,3.034763031687858e-09,3.5127281819297935e-10,3.87,0.66,1.1547652320587076e-05,-0.00010742002632468939,1.3414634466171265,-0.0048828125,0.00537109375,-6.37323686569766e-06,0.0016834442744183755,-6.370428858396238e-06,0.0015110615647984777,-0.06904417130253686,-0.0676865961452968
1623422008.502395,2.784565849376158e-09,3.6079118840368667e-10,3.86,0.66,1.1547652320587076e-05,-0.00010742002632468939,1.3414634466171265,-0.0048828125,0.00537109375,-6.37323686569766e-06,0.0016834442744183755,-6.370723016424898e-06,0.0015280414189124726,-0.06904417130253686,-0.06767481088542045
1623422008.502395,2.784565849376158e-09,3.6079118840368667e-10,3.86,0.66,1.1547652320587076e-05,-0.00010742002632468939,1.3414634466171265,-0.0048828125,0.00537109375,-6.37323686569766e-06,0.0016834442744183755,-6.370723016424898e-06,0.0015280414189124726,-0.06904417130253686,-0.06767481088542045
1623422008.502395,2.784565849376158e-09,3.6079118840368667e-10,3.86,0.66,1.1547652320587076e-05,-0.00010742002632468939,1.3414634466171265,-0.0048828125,0.00537109375,-6.37323686569766e-06,0.0016834442744183755,-6.370723016424898e-06,0.0015280414189124726,-0.06904417130253686,-0.06767481088542045
1623422008.502395,2.784565849376158e-09,3.6079118840368667e-10,3.86,0.66,1.1547652320587076e-05,-0.00010742002632468939,1.3414634466171265,-0.0048828125,0.00537109375,-6.37323686569766e-06,0.0016834442744183755,-6.370723016424898e-06,0.0015280414189124726,-0.06904417130253686,-0.06767481088542045
1623422008.5623949,2.779413222926237e-09,3.693386933672235e-10,3.86,0.66,1.1547652320587076e-05,-0.00010742002632468939,1.3414634466171265,-0.0048828125,0.00537109375,-6.370615918958286e-06,0.0015770862780983953,-6.370565795707341e-06,0.0014804734062222901,-0.06904800962002268,-0.06766833674506448
1623422008.5623949,2.779413222926237e-09,3.693386933672235e-10,3.86,0.66,1.1547652320587076e-05,-0.00010742002632468939,1.402438998222351,-0.00537109375,0.0078125,-6.370615918958286e-06,0.0015770862780983953,-6.370565795707341e-06,0.0014804734062222901,-0.06904800962002268,-0.06766833674506448
1623422008.5623949,2.779413222926237e-09,3.693386933672235e-10,3.86,0.66,1.1547652320587076e-05,-0.00010742002632468939,1.402438998222351,-0.00537109375,0.0078125,-6.370615918958286e-06,0.0015770862780983953,-6.370565795707341e-06,0.0014804734062222901,-0.06904800962002268,-0.06766833674506448
1623422008.5623949,2.779413222926237e-09,3.693386933672235e-10,3.86,0.66,1.1547652320587076e-05,-0.00010742002632468939,1.402438998222351,-0.00537109375,0.0078125,-6.370615918958286e-06,0.0015770862780983953,-6.370565795707341e-06,0.0014804734062222901,-0.06904800962002268,-0.06766833674506448
1623422008.5623949,2.779413222926237e-09,3.693386933672235e-10,3.86,0.66,1.1547652320587076e-05,-0.00010742002632468939,1.402438998222351,-0.00537109375,0.0078125,-6.370615918958286e-06,0.0015770862780983953,-6.370565795707341e-06,0.0014804734062222901,-0.06904800962002268,-0.06766833674506448
1623422008.622395,2.406985826287173e-09,3.7718368432181944e-10,3.86,0.66,1.1547652320587076e-05,-0.00010742002632468939,1.402438998222351,-0.00537109375,0.0078125,-6.374706009320185e-06,0.0018044695914898113,-6.37110971707116e-06,0.0015497867510567895,-0.06903927448936058,-0.06765734525818062
1623422008.622395,2.406985826287173e-09,3.7718368432181944e-10,3.88,0.66,1.1547652320587076e-05,-0.00010742002632468939,1.402438998222351,-0.00537109375,0.0078125,-6.374706009320185e-06,0.0018044695914898113,-6.37110971707116e-06,0.0015497867510567895,-0.06903927448936058,-0.06765734525818062
1623422008.622395,2.406985826287173e-09,3.7718368432181944e-10,3.88,0.66,1.1547652320587076e-05,-0.00010742002632468939,1.402438998222351,-0.00537109375,0.0078125,-6.374706009320185e-06,0.0018044695914898113,-6.37110971707116e-06,0.0015497867510567895,-0.06903927448936058,-0.06765734525818062
1623422008.622395,2.406985826287173e-09,3.7718368432181944e-10,3.88,0.66,1.1547652320587076e-05,-0.00010742002632468939,1.402438998222351,-0.00537109375,0.0078125,-6.374706009320185e-06,0.0018044695914898113,-6.37110971707116e-06,0.0015497867510567895,-0.06903927448936058,-0.06765734525818062
1623422008.622395,2.406985826287173e-09,3.7718368432181944e-10,3.88,0.66,1.1547652320587076e-05,-0.00010742002632468939,1.402438998222351,-0.00537109375,0.0078125,-6.374706009320185e-06,0.0018044695914898113,-6.37110971707116e-06,0.0015497867510567895,-0.06903927448936058,-0.06765734525818062
1623422008.622395,2.1400523696281495e-09,3.8273328073068236e-10,3.88,0.66,1.1547652320587076e-05,-0.00010742002632468939,1.3414634466171265,0.00537109375,0.01025390625,-6.374706009320185e-06,0.0018044695914898113,-6.371619100832695e-06,0.0015830168563283015,-0.06903927448936058,-0.06772931866553435
1623422008.622395,2.1400523696281495e-09,3.8273328073068236e-10,3.88,0.66,1.1547652320587076e-05,-0.00010742002632468939,1.3414634466171265,0.00537109375,0.01025390625,-6.374706009320185e-06,0.0018044695914898113,-6.371619100832695e-06,0.0015830168563283015,-0.06903927448936058,-0.06772931866553435
1623422008.622395,2.1400523696281495e-09,3.8273328073068236e-10,3.88,0.66,1.1547652320587076e-05,-0.00010742002632468939,1.3414634466171265,0.00537109375,0.01025390625,-6.374706009320185e-06,0.0018044695914898113,-6.371619100832695e-06,0.0015830168563283015,-0.06903927448936058,-0.06772931866553435
1623422008.622395,2.1400523696281495e-09,3.8273328073068236e-10,3.88,0.66,1.1547652320587076e-05,-0.00010742002632468939,1.3414634466171265,0.00537109375,0.01025390625,-6.374706009320185e-06,0.0018044695914898113,-6.371619100832695e-06,0.0015830168563283015,-0.06903927448936058,-0.06772931866553435
1623422008.622395,2.1400523696281495e-09,3.8273328073068236e-10,3.88,0.66,1.1547652320587076e-05,-0.00010742002632468939,1.3414634466171265,0.00537109375,0.01025390625,-6.374706009320185e-06,0.0018044695914898113,-6.371619100832695e-06,0.0015830168563283015,-0.06903927448936058,-0.06772931866553435
1623422008.682395,1.7986571585316316e-09,3.8827681987475253e-10,3.88,0.66,1.1547652320587076e-05,-0.00010742002632468939,1.3414634466171265,0.00537109375,0.01025390625,-6.375846359982389e-06,0.00162047310863766,-6.372140521268737e-06,0.0015557167258121317,-0.06904485150179078,-0.06771255955853966
1623422008.682395,1.7986571585316316e-09,3.8827681987475253e-10,3.87,0.64,1.1547652320587076e-05,-0.00010742002632468939,1.3414634466171265,0.00537109375,0.01025390625,-6.375846359982389e-06,0.00162047310863766,-6.372140521268737e-06,0.0015557167258121317,-0.06904485150179078,-0.06771255955853966
1623422008.682395,1.7986571585316316e-09,3.8827681987475253e-10,3.87,0.64,1.1547652320587076e-05,-0.00010742002632468939,1.3414634466171265,0.00537109375,0.01025390625,-6.375846359982389e-06,0.00162047310863766,-6.372140521268737e-06,0.0015557167258121317,-0.06904485150179078,-0.06771255955853966
1623422008.682395,1.7986571585316316e-09,3.8827681987475253e-10,3.87,0.64,1.1547652320587076e-05,-0.00010742002632468939,1.3414634466171265,0.00537109375,0.01025390625,-6.375846359982389e-06,0.00162047310863766,-6.372140521268737e-06,0.0015557167258121317,-0.06904485150179078,-0.06771255955853966
1623422008.682395,1.7986571585316316e-09,3.8827681987475253e-10,3.87,0.64,1.1547652320587076e-05,-0.00010742002632468939,1.3414634466171265,0.00537109375,0.01025390625,-6.375846359982389e-06,0.00162047310863766,-6.372140521268737e-06,0.0015557167258121317,-0.06904485150179078,-0.06771255955853966
1623422008.742395,1.72862316963889e-09,3.931294315842745e-10,3.87,0.64,1.1547652320587076e-05,-0.00010742002632468939,1.3414634466171265,-0.0029296875,0.00244140625,-6.372892090387368e-06,0.0015187575070242077,-6.372165853515551e-06,0.001490661899486366,-0.06904982967945213,-0.06770121323215103
1623422008.742395,1.72862316963889e-09,3.931294315842745e-10,3.87,0.64,1.1547652320587076e-05,-0.00010742002632468939,1.3414634466171265,-0.0029296875,0.00244140625,-6.372892090387368e-06,0.0015187575070242077,-6.372165853515551e-06,0.001490661899486366,-0.06904982967945213,-0.06770121323215103
1623422008.742395,1.72862316963889e-09,3.931294315842745e-10,3.87,0.64,1.1547652320587076e-05,-0.00010742002632468939,1.3414634466171265,-0.0029296875,0.00244140625,-6.372892090387368e-06,0.0015187575070242077,-6.372165853515551e-06,0.001490661899486366,-0.06904982967945213,-0.06770121323215103
1623422008.742395,1.72862316963889e-09,3.931294315842745e-10,3.87,0.64,1.1547652320587076e-05,-0.00010742002632468939,1.3414634466171265,-0.0029296875,0.00244140625,-6.372892090387368e-06,0.0015187575070242077,-6.372165853515551e-06,0.001490661899486366,-0.06904982967945213,-0.06770121323215103
1623422008.742395,1.72862316963889e-09,3.931294315842745e-10,3.87,0.64,1.1547652320587076e-05,-0.00010742002632468939,1.3414634466171265,-0.0029296875,0.00244140625,-6.372892090387368e-06,0.0015187575070242077,-6.372165853515551e-06,0.001490661899486366,-0.06904982967945213,-0.06770121323215103
1623422008.8023949,1.3438474491228119e-09,3.974589737590885e-10,3.87,0.64,1.1547652320587076e-05,-0.00010742002632468939,1.3414634466171265,-0.0029296875,0.00244140625,-6.376657773888693e-06,0.0016008818125227405,-6.3727944718515325e-06,0.0014820347830825401,-0.06904755265565135,-0.06769127883215496
1623422008.8023949,1.3438474491228119e-09,3.974589737590885e-10,3.87,0.62,1.1547652320587076e-05,-0.00010742002632468939,1.3414634466171265,-0.0029296875,0.00244140625,-6.376657773888693e-06,0.0016008818125227405,-6.3727944718515325e-06,0.0014820347830825401,-0.06904755265565135,-0.06769127883215496
1623422008.8023949,1.3438474491228119e-09,3.974589737590885e-10,3.87,0.62,1.1547652320587076e-05,-0.00010742002632468939,1.3414634466171265,-0.0029296875,0.00244140625,-6.376657773888693e-06,0.0016008818125227405,-6.3727944718515325e-06,0.0014820347830825401,-0.06904755265565135,-0.06769127883215496
1623422008.8023949,1.3438474491228119e-09,3.974589737590885e-10,3.87,0.62,1.1836343219329137e-05,-0.00011010552407242358,1.3414634466171265,-0.0029296875,0.00244140625,-6.376657773888693e-06,0.0016008818125227405,-6.3727944718515325e-06,0.0014820347830825401,-0.06904755265565135,-0.06769127883215496
1623422008.8023949,1.3438474491228119e-09,3.974589737590885e-10,3.87,0.62,1.1836343219329137e-05,-0.00011010552407242358,1.3414634466171265,-0.0029296875,0.00244140625,-6.376657773888693e-06,0.0016008818125227405,-6.3727944718515325e-06,0.0014820347830825401,-0.06904755265565135,-0.06769127883215496
1623422008.862395,1.2641775285894985e-09,4.0073383356696356e-10,3.87,0.62,1.1836343219329137e-05,-0.00011010552407242358,1.2804877758026123,-0.00390625,0.0087890625,-6.373647105946768e-06,0.0014997224793929299,-6.372865678917895e-06,0.0014244089939264542,-0.06905152030422886,-0.06768690129342556
1623422008.862395,1.2641775285894985e-09,4.0073383356696356e-10,3.87,0.62,1.1836343219329137e-05,-0.00011010552407242358,1.2804877758026123,-0.00390625,0.0087890625,-6.373647105946768e-06,0.0014997224793929299,-6.372865678917895e-06,0.0014244089939264542,-0.06905152030422886,-0.06768690129342556
1623422008.862395,1.2641775285894985e-09,4.0073383356696356e-10,3.87,0.62,1.1836343219329137e-05,-0.00011010552407242358,1.2804877758026123,-0.00390625,0.0087890625,-6.373647105946768e-06,0.0014997224793929299,-6.372865678917895e-06,0.0014244089939264542,-0.06905152030422886,-0.06768690129342556
1623422008.862395,1.2641775285894985e-09,4.0073383356696356e-10,3.87,0.62,1.1836343219329137e-05,-0.00011010552407242358,1.2804877758026123,-0.00390625,0.0087890625,-6.373647105946768e-06,0.0014997224793929299,-6.372865678917895e-06,0.0014244089939264542,-0.06905152030422886,-0.06768690129342556
1623422008.862395,1.2641775285894985e-09,4.0073383356696356e-10,3.87,0.62,1.1547652320587076e-05,-0.00010742002632468939,1.2804877758026123,-0.00390625,0.0087890625,-6.373647105946768e-06,0.0014997224793929299,-6.372865678917895e-06,0.0014244089939264542,-0.06905152030422886,-0.06768690129342556
1623422008.922395,9.597352478958802e-10,4.0317154350975495e-10,3.87,0.62,1.1547652320587076e-05,-0.00010742002632468939,1.2804877758026123,-0.00390625,0.0087890625,-6.376309570720845e-06,0.0016589999269611536,-6.373370808307821e-06,0.0014552497496285247,-0.06904536306813495,-0.06768075517441266
1623422008.922395,9.597352478958802e-10,4.0317154350975495e-10,3.86,0.62,1.1547652320587076e-05,-0.00010742002632468939,1.2804877758026123,-0.00390625,0.0087890625,-6.376309570720845e-06,0.0016589999269611536,-6.373370808307821e-06,0.0014552497496285247,-0.06904536306813495,-0.06768075517441266
1623422008.922395,9.597352478958802e-10,4.0317154350975495e-10,3.86,0.62,1.1547652320587076e-05,-0.00010742002632468939,1.2804877758026123,-0.00390625,0.0087890625,-6.376309570720845e-06,0.0016589999269611536,-6.373370808307821e-06,0.0014552497496285247,-0.06904536306813495,-0.06768075517441266
1623422008.922395,9.597352478958802e-10,4.0317154350975495e-10,3.86,0.62,1.1547652320587076e-05,-0.00010742002632468939,1.2804877758026123,-0.00390625,0.0087890625,-6.376309570720845e-06,0.0016589999269611536,-6.373370808307821e-06,0.0014552497496285247,-0.06904536306813495,-0.06768075517441266
1623422008.922395,9.597352478958802e-10,4.0317154350975495e-10,3.86,0.62,1.1547652320587076e-05,-0.00010742002632468939,1.2804877758026123,-0.00390625,0.0087890625,-6.376309570720845e-06,0.0016589999269611536,-6.373370808307821e-06,0.0014552497496285247,-0.06904536306813495,-0.06768075517441266
1623422008.922395,7.415528635769754e-10,4.0485175235881227e-10,3.86,0.62,1.1547652320587076e-05,-0.00010742002632468939,1.3414634466171265,-0.00244140625,0.01220703125,-6.376309570720845e-06,0.0016589999269611536,-6.373787181050768e-06,0.0014729683343186345,-0.06904536306813495,-0.06775249785896587
1623422008.922395,7.415528635769754e-10,4.0485175235881227e-10,3.86,0.62,1.1547652320587076e-05,-0.00010742002632468939,1.3414634466171265,-0.00244140625,0.01220703125,-6.376309570720845e-06,0.0016589999269611536,-6.373787181050768e-06,0.0014729683343186345,-0.06904536306813495,-0.06775249785896587
1623422008.922395,7.415528635769754e-10,4.0485175235881227e-10,3.86,0.62,1.1547652320587076e-05,-0.00010742002632468939,1.3414634466171265,-0.00244140625,0.01220703125,-6.376309570720845e-06,0.0016589999269611536,-6.373787181050768e-06,0.0014729683343186345,-0.06904536306813495,-0.06775249785896587
1623422008.922395,7.415528635769754e-10,4.0485175235881227e-10,3.86,0.62,1.1547652320587076e-05,-0.00010742002632468939,1.3414634466171265,-0.00244140625,0.01220703125,-6.376309570720845e-06,0.0016589999269611536,-6.373787181050768e-06,0.0014729683343186345,-0.06904536306813495,-0.06775249785896587
1623422008.922395,7.415528635769754e-10,4.0485175235881227e-10,3.86,0.62,1.1547652320587076e-05,-0.00010742002632468939,1.3414634466171265,-0.00244140625,0.01220703125,-6.376309570720845e-06,0.0016589999269611536,-6.373787181050768e-06,0.0014729683343186345,-0.06904536306813495,-0.06775249785896587
1623422008.984395,1.7844571419801216e-09,4.0549121247204025e-10,3.87,0.62,1.1836343219329137e-05,-0.00011010552407242358,1.3414634466171265,-0.00244140625,0.01220703125,-6.3604791679300894e-06,0.0018246261317316258,-6.371755806219491e-06,0.001577228945235105,-0.06903708117197531,-0.06772632215298799
1623422008.984395,1.7844571419801216e-09,4.0549121247204025e-10,3.87,0.62,1.1836343219329137e-05,-0.00011010552407242358,1.3414634466171265,-0.00244140625,0.01220703125,-6.3604791679300894e-06,0.0018246261317316258,-6.371755806219491e-06,0.001577228945235105,-0.06903708117197531,-0.06772632215298799
1623422008.984395,1.7844571419801216e-09,4.0549121247204025e-10,3.87,0.62,1.1836343219329137e-05,-0.00011010552407242358,1.3414634466171265,-0.00244140625,0.01220703125,-6.3604791679300894e-06,0.0018246261317316258,-6.371755806219491e-06,0.001577228945235105,-0.06903708117197531,-0.06772632215298799
1623422008.984395,1.7844571419801216e-09,4.0549121247204025e-10,3.87,0.62,1.1836343219329137e-05,-0.00011010552407242358,1.3414634466171265,-0.00244140625,0.01220703125,-6.3604791679300894e-06,0.0018246261317316258,-6.371755806219491e-06,0.001577228945235105,-0.06903708117197531,-0.06772632215298799
1623422008.984395,1.7844571419801216e-09,4.0549121247204025e-10,3.87,0.62,1.1836343219329137e-05,-0.00011010552407242358,1.3414634466171265,-0.00244140625,0.01220703125,-6.3604791679300894e-06,0.0018246261317316258,-6.371755806219491e-06,0.001577228945235105,-0.06903708117197531,-0.06772632215298799
1623422009.0423949,1.8346614333280439e-09,4.053878769546396e-10,3.87,0.62,1.1836343219329137e-05,-0.00011010552407242358,1.2195122241973877,-0.00439453125,0.0185546875,-6.3710346585934895e-06,0.0017136447781925849,-6.37155682408786e-06,0.0015739136006901486,-0.0690428176197348,-0.0677117079609764
1623422009.0423949,1.8346614333280439e-09,4.053878769546396e-10,3.87,0.62,1.1836343219329137e-05,-0.00011010552407242358,1.2195122241973877,-0.00439453125,0.0185546875,-6.3710346585934895e-06,0.0017136447781925849,-6.37155682408786e-06,0.0015739136006901486,-0.0690428176197348,-0.0677117079609764
1623422009.0423949,1.8346614333280439e-09,4.053878769546396e-10,3.87,0.62,1.1547652320587076e-05,-0.00010742002632468939,1.2195122241973877,-0.00439453125,0.0185546875,-6.3710346585934895e-06,0.0017136447781925849,-6.37155682408786e-06,0.0015739136006901486,-0.0690428176197348,-0.0677117079609764
1623422009.0423949,1.8346614333280439e-09,4.053878769546396e-10,3.87,0.62,1.1547652320587076e-05,-0.00010742002632468939,1.2195122241973877,-0.00439453125,0.0185546875,-6.3710346585934895e-06,0.0017136447781925849,-6.37155682408786e-06,0.0015739136006901486,-0.0690428176197348,-0.0677117079609764
1623422009.0423949,1.8346614333280439e-09,4.053878769546396e-10,3.87,0.62,1.1547652320587076e-05,-0.00010742002632468939,1.2195122241973877,-0.00439453125,0.0185546875,-6.3710346585934895e-06,0.0017136447781925849,-6.37155682408786e-06,0.0015739136006901486,-0.0690428176197348,-0.0677117079609764
1623422009.102395,1.6920596330426336e-09,4.047472840649073e-10,3.87,0.62,1.1547652320587076e-05,-0.00010742002632468939,1.2195122241973877,-0.00439453125,0.0185546875,-6.373151576255749e-06,0.0018451119231174574,-6.3717182188433205e-06,0.0016355123051687976,-0.06903802015761668,-0.06769126360611404
1623422009.102395,1.6920596330426336e-09,4.047472840649073e-10,3.87,0.64,1.1547652320587076e-05,-0.00010742002632468939,1.2195122241973877,-0.00439453125,0.0185546875,-6.373151576255749e-06,0.0018451119231174574,-6.3717182188433205e-06,0.0016355123051687976,-0.06903802015761668,-0.06769126360611404
1623422009.102395,1.6920596330426336e-09,4.047472840649073e-10,3.87,0.64,1.1547652320587076e-05,-0.00010742002632468939,1.2195122241973877,-0.00439453125,0.0185546875,-6.373151576255749e-06,0.0018451119231174574,-6.3717182188433205e-06,0.0016355123051687976,-0.06903802015761668,-0.06769126360611404
1623422009.102395,1.6920596330426336e-09,4.047472840649073e-10,3.87,0.64,1.1547652320587076e-05,-0.00010742002632468939,1.2195122241973877,-0.00439453125,0.0185546875,-6.373151576255749e-06,0.0018451119231174574,-6.3717182188433205e-06,0.0016355123051687976,-0.06903802015761668,-0.06769126360611404
1623422009.102395,1.6920596330426336e-09,4.047472840649073e-10,3.87,0.64,1.1547652320587076e-05,-0.00010742002632468939,1.3414634466171265,-0.0048828125,0.0048828125,-6.373151576255749e-06,0.0018451119231174574,-6.3717182188433205e-06,0.0016355123051687976,-0.06903802015761668,-0.06769126360611404
1623422009.162395,1.7911059596421875e-09,4.034138637343651e-10,3.87,0.64,1.1547652320587076e-05,-0.00010742002632468939,1.3414634466171265,-0.0048828125,0.0048828125,-6.370454414239375e-06,0.0017286796139149789,-6.371427978623794e-06,0.0016054677740631183,-0.06904133414046747,-0.06767585258572643
1623422009.162395,1.7911059596421875e-09,4.034138637343651e-10,3.87,0.64,1.1547652320587076e-05,-0.00010742002632468939,1.3414634466171265,-0.0048828125,0.0048828125,-6.370454414239375e-06,0.0017286796139149789,-6.371427978623794e-06,0.0016054677740631183,-0.06904133414046747,-0.06767585258572643
1623422009.162395,1.7911059596421875e-09,4.034138637343651e-10,3.87,0.64,1.1547652320587076e-05,-0.00010742002632468939,1.3414634466171265,-0.0048828125,0.0048828125,-6.370454414239375e-06,0.0017286796139149789,-6.371427978623794e-06,0.0016054677740631183,-0.06904133414046747,-0.06767585258572643
1623422009.162395,1.7911059596421875e-09,4.034138637343651e-10,3.87,0.64,1.1547652320587076e-05,-0.00010742002632468939,1.3414634466171265,-0.0048828125,0.0048828125,-6.370454414239375e-06,0.0017286796139149789,-6.371427978623794e-06,0.0016054677740631183,-0.06904133414046747,-0.06767585258572643
1623422009.162395,1.7911059596421875e-09,4.034138637343651e-10,3.87,0.64,1.1547652320587076e-05,-0.00010742002632468939,1.3414634466171265,-0.0048828125,0.0048828125,-6.370454414239375e-06,0.0017286796139149789,-6.371427978623794e-06,0.0016054677740631183,-0.06904133414046747,-0.06767585258572643
1623422009.222395,1.7684739622916657e-09,4.0170176400952667e-10,3.87,0.64,1.1547652320587076e-05,-0.00010742002632468939,1.3414634466171265,-0.0048828125,0.0048828125,-6.371581997708438e-06,0.0015971731886362812,-6.371363741049117e-06,0.0015364966957254252,-0.06904617708471564,-0.06766754026469975
1623422009.222395,1.7684739622916657e-09,4.0170176400952667e-10,3.88,0.67,1.1547652320587076e-05,-0.00010742002632468939,1.3414634466171265,-0.0048828125,0.0048828125,-6.371581997708438e-06,0.0015971731886362812,-6.371363741049117e-06,0.0015364966957254252,-0.06904617708471564,-0.06766754026469975
1623422009.222395,1.7684739622916657e-09,4.0170176400952667e-10,3.88,0.67,1.1547652320587076e-05,-0.00010742002632468939,1.3414634466171265,-0.0048828125,0.0048828125,-6.371581997708438e-06,0.0015971731886362812,-6.371363741049117e-06,0.0015364966957254252,-0.06904617708471564,-0.06766754026469975
1623422009.222395,1.7684739622916657e-09,4.0170176400952667e-10,3.88,0.67,1.1547652320587076e-05,-0.00010742002632468939,1.3414634466171265,-0.0048828125,0.0048828125,-6.371581997708438e-06,0.0015971731886362812,-6.371363741049117e-06,0.0015364966957254252,-0.06904617708471564,-0.06766754026469975
1623422009.222395,1.7684739622916657e-09,4.0170176400952667e-10,3.88,0.67,1.1547652320587076e-05,-0.00010742002632468939,1.3414634466171265,-0.0048828125,0.0048828125,-6.371581997708438e-06,0.0015971731886362812,-6.371363741049117e-06,0.0015364966957254252,-0.06904617708471564,-0.06766754026469975
1623422009.222395,1.7522569107918652e-09,4.00421838533016e-10,3.88,0.67,1.1547652320587076e-05,-0.00010742002632468939,1.2804877758026123,-0.00390625,0.00732421875,-6.371581997708438e-06,0.0015971731886362812,-6.3713947223476865e-06,0.0015135336634363354,-0.06904617708471564,-0.06774295179284004
1623422009.222395,1.7522569107918652e-09,4.00421838533016e-10,3.88,0.67,1.1547652320587076e-05,-0.00010742002632468939,1.2804877758026123,-0.00390625,0.00732421875,-6.371581997708438e-06,0.0015971731886362812,-6.3713947223476865e-06,0.0015135336634363354,-0.06904617708471564,-0.06774295179284004
1623422009.222395,1.7522569107918652e-09,4.00421838533016e-10,3.88,0.67,1.1547652320587076e-05,-0.00010742002632468939,1.2804877758026123,-0.00390625,0.00732421875,-6.371581997708438e-06,0.0015971731886362812,-6.3713947223476865e-06,0.0015135336634363354,-0.06904617708471564,-0.06774295179284004
1623422009.222395,1.7522569107918652e-09,4.00421838533016e-10,3.88,0.67,1.1547652320587076e-05,-0.00010742002632468939,1.2804877758026123,-0.00390625,0.00732421875,-6.371581997708438e-06,0.0015971731886362812,-6.3713947223476865e-06,0.0015135336634363354,-0.06904617708471564,-0.06774295179284004
1623422009.222395,1.7522569107918652e-09,4.00421838533016e-10,3.88,0.67,1.1547652320587076e-05,-0.00010742002632468939,1.2804877758026123,-0.00390625,0.00732421875,-6.371581997708438e-06,0.0015971731886362812,-6.3713947223476865e-06,0.0015135336634363354,-0.06904617708471564,-0.06774295179284004
1623422009.282395,1.7358463193161567e-09,3.984173829197081e-10,3.88,0.67,1.1547652320587076e-05,-0.00010742002632468939,1.2804877758026123,-0.00390625,0.00732421875,-6.371498728017041e-06,0.001647599149978174,-6.3713947223476865e-06,0.0015135336634363354,-0.06904599937348903,-0.06774295179284004
1623422009.282395,1.7358463193161567e-09,3.984173829197081e-10,3.86,0.66,1.1547652320587076e-05,-0.00010742002632468939,1.2804877758026123,-0.00390625,0.00732421875,-6.371498728017041e-06,0.001647599149978174,-6.3713208598317625e-06,0.0015255434260603423,-0.06904599937348903,-0.06772672446998851
1623422009.282395,1.7358463193161567e-09,3.984173829197081e-10,3.86,0.66,1.1547652320587076e-05,-0.00010742002632468939,1.2804877758026123,-0.00390625,0.00732421875,-6.371498728017041e-06,0.001647599149978174,-6.3713208598317625e-06,0.0015255434260603423,-0.06904599937348903,-0.06772672446998851
1623422009.282395,1.7358463193161567e-09,3.984173829197081e-10,3.86,0.66,1.1547652320587076e-05,-0.00010742002632468939,1.2804877758026123,-0.00390625,0.00732421875,-6.371498728017041e-06,0.001647599149978174,-6.3713208598317625e-06,0.0015255434260603423,-0.06904599937348903,-0.06772672446998851
1623422009.282395,1.7358463193161567e-09,3.984173829197081e-10,3.86,0.66,1.1547652320587076e-05,-0.00010742002632468939,1.2804877758026123,-0.0078125,0.00439453125,-6.371498728017041e-06,0.001647599149978174,-6.3713208598317625e-06,0.0015255434260603423,-0.06904599937348903,-0.06772672446998851
1623422009.342395,1.922365523538842e-09,3.955280509867076e-10,3.86,0.66,1.1547652320587076e-05,-0.00010742002632468939,1.2804877758026123,-0.0078125,0.00439453125,-6.368924929810791e-06,0.001544060047061563,-6.3713208598317625e-06,0.0015255434260603423,-0.06904966908194426,-0.06772672446998851
1623422009.342395,1.922365523538842e-09,3.955280509867076e-10,3.86,0.66,1.1547652320587076e-05,-0.00010742002632468939,1.2804877758026123,-0.0078125,0.00439453125,-6.368924929810791e-06,0.001544060047061563,-6.3713208598317625e-06,0.0015255434260603423,-0.06904966908194426,-0.06772672446998851
1623422009.342395,1.922365523538842e-09,3.955280509867076e-10,3.86,0.66,1.1272709343757015e-05,-0.00010486241080798209,1.2804877758026123,-0.0078125,0.00439453125,-6.368924929810791e-06,0.001544060047061563,-6.370861865334335e-06,0.0014801225821633763,-0.06904966908194426,-0.06771481456197102
1623422009.342395,1.922365523538842e-09,3.955280509867076e-10,3.86,0.66,1.1272709343757015e-05,-0.00010486241080798209,1.2804877758026123,-0.0078125,0.00439453125,-6.368924929810791e-06,0.001544060047061563,-6.370861865334335e-06,0.0014801225821633763,-0.06904966908194426,-0.06771481456197102
1623422009.342395,1.922365523538842e-09,3.955280509867076e-10,3.86,0.66,1.1272709343757015e-05,-0.00010486241080798209,1.2804877758026123,-0.0078125,0.00439453125,-6.368924929810791e-06,0.001544060047061563,-6.370861865334335e-06,0.0014801225821633763,-0.06904966908194426,-0.06771481456197102
1623422009.402395,1.746370124898653e-09,3.921118104439314e-10,3.85,0.65,1.1272709343757015e-05,-0.00010486241080798209,1.2804877758026123,-0.0078125,0.00439453125,-6.372849550406083e-06,0.001685283695317125,-6.370861865334335e-06,0.0014801225821633763,-0.06904481545612925,-0.06771481456197102
1623422009.402395,1.746370124898653e-09,3.921118104439314e-10,3.85,0.65,1.1272709343757015e-05,-0.00010486241080798209,1.2804877758026123,-0.0078125,0.00439453125,-6.372849550406083e-06,0.001685283695317125,-6.370861865334335e-06,0.0014801225821633763,-0.06904481545612925,-0.06771481456197102
1623422009.402395,1.746370124898653e-09,3.921118104439314e-10,3.85,0.65,1.1547652320587076e-05,-0.00010742002632468939,1.2804877758026123,-0.0078125,0.00439453125,-6.372849550406083e-06,0.001685283695317125,-6.3710815917858514e-06,0.0015116652826564555,-0.06904481545612925,-0.06770168244332983
1623422009.402395,1.746370124898653e-09,3.921118104439314e-10,3.85,0.65,1.1547652320587076e-05,-0.00010742002632468939,1.2804877758026123,-0.0078125,0.00439453125,-6.372849550406083e-06,0.001685283695317125,-6.3710815917858514e-06,0.0015116652826564555,-0.06904481545612925,-0.06770168244332983
1623422009.402395,1.746370124898653e-09,3.921118104439314e-10,3.85,0.65,1.1547652320587076e-05,-0.00010742002632468939,1.2804877758026123,-0.0078125,0.00439453125,-6.372849550406083e-06,0.001685283695317125,-6.3710815917858514e-06,0.0015116652826564555,-0.06904481545612925,-0.06770168244332983
1623422009.462395,1.7966631096780045e-09,3.8791747904976204e-10,3.85,0.65,1.1547652320587076e-05,-0.00010742002632468939,1.402438998222351,-0.0078125,0.01220703125,-6.370386658904038e-06,0.001578785515467261,-6.3710815917858514e-06,0.0015116652826564555,-0.06904824689702962,-0.06770168244332983
1623422009.462395,1.7966631096780045e-09,3.8791747904976204e-10,3.85,0.65,1.1547652320587076e-05,-0.00010742002632468939,1.402438998222351,-0.0078125,0.01220703125,-6.370386658904038e-06,0.001578785515467261,-6.370880990628569e-06,0.0014714947648549214,-0.06904824689702962,-0.06769357183991634
1623422009.462395,1.7966631096780045e-09,3.8791747904976204e-10,3.85,0.65,1.1547652320587076e-05,-0.00010742002632468939,1.402438998222351,-0.0078125,0.01220703125,-6.370386658904038e-06,0.001578785515467261,-6.370880990628569e-06,0.0014714947648549214,-0.06904824689702962,-0.06769357183991634
1623422009.462395,1.7966631096780045e-09,3.8791747904976204e-10,3.85,0.65,1.1547652320587076e-05,-0.00010742002632468939,1.402438998222351,-0.0078125,0.01220703125,-6.370386658904038e-06,0.001578785515467261,-6.370880990628569e-06,0.0014714947648549214,-0.06904824689702962,-0.06769357183991634
1623422009.462395,1.7966631096780045e-09,3.8791747904976204e-10,3.85,0.65,1.1547652320587076e-05,-0.00010742002632468939,1.402438998222351,-0.0078125,0.01220703125,-6.370386658904038e-06,0.001578785515467261,-6.370880990628569e-06,0.0014714947648549214,-0.06904824689702962,-0.06769357183991634
1623422009.522395,1.5018923137855516e-09,3.8339752791078786e-10,3.85,0.65,1.1547652320587076e-05,-0.00010742002632468939,1.402438998222351,-0.0078125,0.01220703125,-6.3741826620725356e-06,0.0016707202626489795,-6.370880990628569e-06,0.0014714947648549214,-0.06904441619066166,-0.06769357183991634
1623422009.522395,1.5018923137855516e-09,3.8339752791078786e-10,3.85,0.65,1.1547652320587076e-05,-0.00010742002632468939,1.402438998222351,-0.0078125,0.01220703125,-6.3741826620725356e-06,0.0016707202626489795,-6.371335863430362e-06,0.0014883227685568846,-0.06904441619066166,-0.06768530151154963
1623422009.522395,1.5018923137855516e-09,3.8339752791078786e-10,3.85,0.65,1.1547652320587076e-05,-0.00010742002632468939,1.402438998222351,-0.0078125,0.01220703125,-6.3741826620725356e-06,0.0016707202626489795,-6.371335863430362e-06,0.0014883227685568846,-0.06904441619066166,-0.06768530151154963
1623422009.522395,1.5018923137855516e-09,3.8339752791078786e-10,3.85,0.65,1.1547652320587076e-05,-0.00010742002632468939,1.3414634466171265,-0.0087890625,0.00390625,-6.3741826620725356e-06,0.0016707202626489795,-6.371335863430362e-06,0.0014883227685568846,-0.06904441619066166,-0.06768530151154963
1623422009.522395,1.5018923137855516e-09,3.8339752791078786e-10,3.85,0.65,1.1547652320587076e-05,-0.00010742002632468939,1.3414634466171265,-0.0087890625,0.00390625,-6.3741826620725356e-06,0.0016707202626489795,-6.371335863430362e-06,0.0014883227685568846,-0.06904441619066166,-0.06768530151154963
1623422009.568395,2.4915853271264057e-08,3.788937146998448e-10,3.85,0.65,1.1547652320587076e-05,-0.00010742002632468939,1.3414634466171265,-0.0087890625,0.00390625,-6.080970066431486e-06,0.0017501670987920027,-6.371335863430362e-06,0.0014883227685568846,-0.06896121837790693,-0.06768530151154963
1623422009.568395,2.4915853271264057e-08,3.788937146998448e-10,3.85,0.65,1.1547652320587076e-05,-0.00010742002632468939,1.3414634466171265,-0.0087890625,0.00390625,-6.080970066431486e-06,0.0017501670987920027,-6.371335863430362e-06,0.0014883227685568846,-0.06896121837790693,-0.06768530151154963
1623422009.568395,2.4915853271264057e-08,3.788937146998448e-10,3.85,0.65,1.1547652320587076e-05,-0.00010742002632468939,1.3414634466171265,-0.0087890625,0.00390625,-6.080970066431486e-06,0.0017501670987920027,-6.3265642254090905e-06,0.0015833491554459707,-0.06896121837790693,-0.06764874507248675
1623422009.568395,2.4915853271264057e-08,3.788937146998448e-10,3.85,0.65,1.1547652320587076e-05,-0.00010742002632468939,1.3414634466171265,-0.0087890625,0.00390625,-6.080970066431486e-06,0.0017501670987920027,-6.3265642254090905e-06,0.0015833491554459707,-0.06896121837790693,-0.06764874507248675
1623422009.568395,2.4915853271264057e-08,3.788937146998448e-10,3.85,0.65,1.1547652320587076e-05,-0.00010742002632468939,1.3414634466171265,-0.0087890625,0.00390625,-6.080970066431486e-06,0.0017501670987920027,-6.3265642254090905e-06,0.0015833491554459707,-0.06896121837790693,-0.06764874507248675
1623422009.582395,2.1083176951770637e-08,3.7530570950816527e-10,3.85,0.66,1.1547652320587076e-05,-0.00010742002632468939,1.3414634466171265,-0.0087890625,0.00390625,-6.376472773555681e-06,0.0017217473198892477,-6.3265642254090905e-06,0.0015833491554459707,-0.06904262928818403,-0.06764874507248675
1623422009.582395,2.1083176951770637e-08,3.7530570950816527e-10,3.85,0.66,1.1547652320587076e-05,-0.00010742002632468939,1.3414634466171265,-0.0087890625,0.00390625,-6.376472773555681e-06,0.0017217473198892477,-6.3265642254090905e-06,0.0015833491554459707,-0.06904262928818403,-0.06764874507248675
1623422009.582395,2.1083176951770637e-08,3.7530570950816527e-10,3.85,0.66,1.1547652320587076e-05,-0.00010742002632468939,1.3414634466171265,-0.0087890625,0.00390625,-6.376472773555681e-06,0.0017217473198892477,-6.3265642254090905e-06,0.0015833491554459707,-0.06904262928818403,-0.06764874507248675
1623422009.582395,2.1083176951770637e-08,3.7530570950816527e-10,3.85,0.66,1.1547652320587076e-05,-0.00010742002632468939,1.3414634466171265,-0.0087890625,0.00390625,-6.376472773555681e-06,0.0017217473198892477,-6.3265642254090905e-06,0.0015833491554459707,-0.06904262928818403,-0.06764874507248675
1623422009.582395,2.1083176951770637e-08,3.7530570950816527e-10,3.85,0.66,1.1547652320587076e-05,-0.00010742002632468939,1.2804877758026123,-0.00146484375,0.01025390625,-6.373532237422293e-06,0.0016136436576329348,-6.3265642254090905e-06,0.0015833491554459707,-0.0690463648378273,-0.06764874507248675
1623422009.642395,1.7787276553856432e-08,3.708679631669035e-10,3.85,0.66,1.1547652320587076e-05,-0.00010742002632468939,1.2804877758026123,-0.00146484375,0.01025390625,-6.373532237422293e-06,0.0016136436576329348,-6.333526765504852e-06,0.0015893415037795038,-0.0690463648378273,-0.06770439107647963
1623422009.642395,1.7787276553856432e-08,3.708679631669035e-10,3.85,0.66,1.1272709343757015e-05,-0.00010486241080798209,1.2804877758026123,-0.00146484375,0.01025390625,-6.373532237422293e-06,0.0016136436576329348,-6.333526765504852e-06,0.0015893415037795038,-0.0690463648378273,-0.06770439107647963
1623422009.642395,1.7787276553856432e-08,3.708679631669035e-10,3.85,0.66,1.1272709343757015e-05,-0.00010486241080798209,1.2804877758026123,-0.00146484375,0.01025390625,-6.373532237422293e-06,0.0016136436576329348,-6.333526765504852e-06,0.0015893415037795038,-0.0690463648378273,-0.06770439107647963
1623422009.642395,1.7787276553856432e-08,3.708679631669035e-10,3.85,0.66,1.1272709343757015e-05,-0.00010486241080798209,1.2804877758026123,-0.00146484375,0.01025390625,-6.373532237422293e-06,0.0016136436576329348,-6.333526765504852e-06,0.0015893415037795038,-0.0690463648378273,-0.06770439107647963
1623422009.702395,1.4495464710042948e-08,3.6607498209423097e-10,3.85,0.66,1.1272709343757015e-05,-0.00010486241080798209,1.2804877758026123,-0.00146484375,0.01025390625,-6.377354115720687e-06,0.001734188014191242,-6.343741372812854e-06,0.0015730139276484835,-0.06904188207042981,-0.06767717301314202
1623422009.702395,1.4495464710042948e-08,3.6607498209423097e-10,3.86,0.65,1.1272709343757015e-05,-0.00010486241080798209,1.2804877758026123,-0.00146484375,0.01025390625,-6.377354115720687e-06,0.001734188014191242,-6.343741372812854e-06,0.0015730139276484835,-0.06904188207042981,-0.06767717301314202
1623422009.702395,1.4495464710042948e-08,3.6607498209423097e-10,3.86,0.65,1.1272709343757015e-05,-0.00010486241080798209,1.2804877758026123,-0.00146484375,0.01025390625,-6.377354115720687e-06,0.001734188014191242,-6.343741372812854e-06,0.0015730139276484835,-0.06904188207042981,-0.06767717301314202
1623422009.702395,1.4495464710042948e-08,3.6607498209423097e-10,3.86,0.65,1.1547652320587076e-05,-0.00010742002632468939,1.2804877758026123,-0.00146484375,0.01025390625,-6.377354115720687e-06,0.001734188014191242,-6.343741372812854e-06,0.0015730139276484835,-0.06904188207042981,-0.06767717301314202
1623422009.702395,1.4495464710042948e-08,3.6607498209423097e-10,3.86,0.65,1.1547652320587076e-05,-0.00010742002632468939,1.2804877758026123,-0.00146484375,0.01025390625,-6.377354115720687e-06,0.001734188014191242,-6.343741372812854e-06,0.0015730139276484835,-0.06904188207042981,-0.06767717301314202
1623422009.762395,1.1844645885737237e-08,3.606284668613092e-10,3.86,0.65,1.1547652320587076e-05,-0.00010742002632468939,1.2804877758026123,-0.0009765625,0.00244140625,-6.374256776435308e-06,0.0016245208835192382,-6.343741372812854e-06,0.0015730139276484835,-0.06904576094897,-0.06767717301314202
1623422009.762395,1.1844645885737237e-08,3.606284668613092e-10,3.86,0.65,1.1547652320587076e-05,-0.00010742002632468939,1.2804877758026123,-0.0009765625,0.00244140625,-6.374256776435308e-06,0.0016245208835192382,-6.343741372812854e-06,0.0015730139276484835,-0.06904576094897,-0.06767717301314202
1623422009.762395,1.1844645885737237e-08,3.606284668613092e-10,3.86,0.65,1.1547652320587076e-05,-0.00010742002632468939,1.2804877758026123,-0.0009765625,0.00244140625,-6.374256776435308e-06,0.0016245208835192382,-6.347924244639158e-06,0.0015283400588718221,-0.06904576094897,-0.06766785328931775
1623422009.762395,1.1844645885737237e-08,3.606284668613092e-10,3.86,0.65,1.1547652320587076e-05,-0.00010742002632468939,1.2804877758026123,-0.0009765625,0.00244140625,-6.374256776435308e-06,0.0016245208835192382,-6.347924244639158e-06,0.0015283400588718221,-0.06904576094897,-0.06766785328931775
1623422009.762395,1.1844645885737237e-08,3.606284668613092e-10,3.86,0.65,1.1836343219329137e-05,-0.00011010552407242358,1.2804877758026123,-0.0009765625,0.00244140625,-6.374256776435308e-06,0.0016245208835192382,-6.347924244639158e-06,0.0015283400588718221,-0.06904576094897,-0.06766785328931775
1623422009.762395,1.1844645885737237e-08,3.606284668613092e-10,3.86,0.65,1.1836343219329137e-05,-0.00011010552407242358,1.2804877758026123,-0.0009765625,0.00244140625,-6.375967674362982e-06,0.0017795259091326905,-6.347924244639158e-06,0.0015283400588718221,-0.06903954136263077,-0.06766785328931775
1623422009.822395,9.376248406779644e-09,3.5485424247709304e-10,3.87,0.67,1.1836343219329137e-05,-0.00011010552407242358,1.2804877758026123,-0.0009765625,0.00244140625,-6.375967674362982e-06,0.0017795259091326905,-6.347924244639158e-06,0.0015283400588718221,-0.06903954136263077,-0.06766785328931775
1623422009.822395,9.376248406779644e-09,3.5485424247709304e-10,3.87,0.67,1.1836343219329137e-05,-0.00011010552407242358,1.2804877758026123,-0.0009765625,0.00244140625,-6.375967674362982e-06,0.0017795259091326905,-6.347924244639158e-06,0.0015283400588718221,-0.06903954136263077,-0.06766785328931775
1623422009.822395,9.376248406779644e-09,3.5485424247709304e-10,3.87,0.67,1.1836343219329137e-05,-0.00011010552407242358,1.2804877758026123,-0.0009765625,0.00244140625,-6.375967674362982e-06,0.0017795259091326905,-6.347924244639158e-06,0.0015283400588718221,-0.06903954136263077,-0.06766785328931775
1623422009.822395,9.376248406779644e-09,3.5485424247709304e-10,3.87,0.67,1.1836343219329137e-05,-0.00011010552407242358,1.2804877758026123,-0.0009765625,0.00244140625,-6.375967674362982e-06,0.0017795259091326905,-6.347924244639158e-06,0.0015283400588718221,-0.06903954136263077,-0.06766785328931775
1623422009.822395,7.602802941444644e-09,3.506372449736306e-10,3.87,0.67,1.1547652320587076e-05,-0.00010742002632468939,1.3414634466171265,-0.01220703125,0.00439453125,-6.375967674362982e-06,0.0017795259091326905,-6.35192446355724e-06,0.001564514933511289,-0.06903954136263077,-0.06765670713769853
1623422009.822395,7.602802941444644e-09,3.506372449736306e-10,3.87,0.67,1.1547652320587076e-05,-0.00010742002632468939,1.3414634466171265,-0.01220703125,0.00439453125,-6.375967674362982e-06,0.0017795259091326905,-6.3553090639892145e-06,0.0015846699869568178,-0.06903954136263077,-0.06772968956410999
1623422009.822395,7.602802941444644e-09,3.506372449736306e-10,3.87,0.67,1.1547652320587076e-05,-0.00010742002632468939,1.3414634466171265,-0.01220703125,0.00439453125,-6.375967674362982e-06,0.0017795259091326905,-6.3553090639892145e-06,0.0015846699869568178,-0.06903954136263077,-0.06772968956410999
1623422009.822395,7.602802941444644e-09,3.506372449736306e-10,3.87,0.67,1.1547652320587076e-05,-0.00010742002632468939,1.3414634466171265,-0.01220703125,0.00439453125,-6.375967674362982e-06,0.0017795259091326905,-6.3553090639892145e-06,0.0015846699869568178,-0.06903954136263077,-0.06772968956410999
1623422009.822395,7.602802941444644e-09,3.506372449736306e-10,3.87,0.67,1.1547652320587076e-05,-0.00010742002632468939,1.3414634466171265,-0.01220703125,0.00439453125,-6.375967674362982e-06,0.0017795259091326905,-6.3553090639892145e-06,0.0015846699869568178,-0.06903954136263077,-0.06772968956410999
1623422009.882395,6.130398259607847e-09,3.4553534514856787e-10,3.87,0.67,1.1547652320587076e-05,-0.00010742002632468939,1.3414634466171265,-0.01220703125,0.00439453125,-6.37372839322628e-06,0.00188058199158921,-6.3553090639892145e-06,0.0015846699869568178,-0.06903681366556026,-0.06772968956410999
1623422009.882395,6.130398259607847e-09,3.4553534514856787e-10,3.86,0.66,1.1547652320587076e-05,-0.00010742002632468939,1.3414634466171265,-0.01220703125,0.00439453125,-6.37372839322628e-06,0.00188058199158921,-6.3553090639892145e-06,0.0015846699869568178,-0.06903681366556026,-0.06772968956410999
1623422009.882395,6.130398259607847e-09,3.4553534514856787e-10,3.86,0.66,1.1547652320587076e-05,-0.00010742002632468939,1.3414634466171265,-0.01220703125,0.00439453125,-6.37372839322628e-06,0.00188058199158921,-6.3576557156376e-06,0.0016617652015425274,-0.06903681366556026,-0.06770590001288355
1623422009.882395,6.130398259607847e-09,3.4553534514856787e-10,3.86,0.66,1.1547652320587076e-05,-0.00010742002632468939,1.3414634466171265,-0.01220703125,0.00439453125,-6.37372839322628e-06,0.00188058199158921,-6.3576557156376e-06,0.0016617652015425274,-0.06903681366556026,-0.06770590001288355
1623422009.882395,6.130398259607847e-09,3.4553534514856787e-10,3.86,0.66,1.1547652320587076e-05,-0.00010742002632468939,1.3414634466171265,-0.01220703125,0.00439453125,-6.37372839322628e-06,0.00188058199158921,-6.3576557156376e-06,0.0016617652015425274,-0.06903681366556026,-0.06770590001288355
1623422009.942395,5.04645430673269e-09,3.3973295520077427e-10,3.86,0.66,1.1547652320587076e-05,-0.00010742002632468939,1.3414634466171265,0.0,-0.001953125,-6.3706432866837616e-06,0.001762330493182972,-6.3576557156376e-06,0.0016617652015425274,-0.06903991762398135,-0.06770590001288355
1623422009.942395,5.04645430673269e-09,3.3973295520077427e-10,3.86,0.66,1.1547652320587076e-05,-0.00010742002632468939,1.3414634466171265,0.0,-0.001953125,-6.3706432866837616e-06,0.001762330493182972,-6.3576557156376e-06,0.0016617652015425274,-0.06903991762398135,-0.06770590001288355
1623422009.942395,5.04645430673269e-09,3.3973295520077427e-10,3.86,0.66,1.1547652320587076e-05,-0.00010742002632468939,1.3414634466171265,0.0,-0.001953125,-6.3706432866837616e-06,0.001762330493182972,-6.3576557156376e-06,0.0016617652015425274,-0.06903991762398135,-0.06770590001288355
1623422009.942395,5.04645430673269e-09,3.3973295520077427e-10,3.86,0.66,1.1547652320587076e-05,-0.00010742002632468939,1.3414634466171265,0.0,-0.001953125,-6.3706432866837616e-06,0.001762330493182972,-6.3576557156376e-06,0.0016617652015425274,-0.06903991762398135,-0.06770590001288355
1623422009.942395,5.04645430673269e-09,3.3973295520077427e-10,3.86,0.66,1.1547652320587076e-05,-0.00010742002632468939,1.3414634466171265,0.0,-0.001953125,-6.3706432866837616e-06,0.001762330493182972,-6.3576557156376e-06,0.0016617652015425274,-0.06903991762398135,-0.06770590001288355
1623422010.002395,3.83116599311821e-09,3.3376726849448265e-10,3.86,0.66,1.1547652320587076e-05,-0.00010742002632468939,1.3414634466171265,0.0,-0.001953125,-6.37360328051736e-06,0.0018075971296694624,-6.3593500046646625e-06,0.001643812966695535,-0.06903817143193457,-0.06768552816140848
1623422010.002395,3.83116599311821e-09,3.3376726849448265e-10,3.86,0.66,1.1547652320587076e-05,-0.00010742002632468939,1.3414634466171265,0.0,-0.001953125,-6.37360328051736e-06,0.0018075971296694624,-6.3593500046646625e-06,0.001643812966695535,-0.06903817143193457,-0.06768552816140848
1623422010.002395,3.83116599311821e-09,3.3376726849448265e-10,3.86,0.66,1.1547652320587076e-05,-0.00010742002632468939,1.3414634466171265,0.0,-0.001953125,-6.37360328051736e-06,0.0018075971296694624,-6.3593500046646625e-06,0.001643812966695535,-0.06903817143193457,-0.06768552816140848
1623422010.002395,3.83116599311821e-09,3.3376726849448265e-10,3.86,0.66,1.1547652320587076e-05,-0.00010742002632468939,1.3414634466171265,-0.005859375,-0.00439453125,-6.37360328051736e-06,0.0018075971296694624,-6.3593500046646625e-06,0.001643812966695535,-0.06903817143193457,-0.06768552816140848
1623422010.002395,3.83116599311821e-09,3.3376726849448265e-10,3.86,0.66,1.1547652320587076e-05,-0.00010742002632468939,1.3414634466171265,-0.005859375,-0.00439453125,-6.37360328051736e-06,0.0018075971296694624,-6.361360465953442e-06,0.0016563657864163371,-0.06903817143193457,-0.06766603188310653
1623422010.068395,6.273898073834207e-09,3.272647067753386e-10,3.86,0.66,1.1547652320587076e-05,-0.00010742002632468939,1.3414634466171265,-0.005859375,-0.00439453125,-6.332675121845757e-06,0.0015931188783699145,-6.361360465953442e-06,0.0016563657864163371,-0.0690354385007094,-0.06766603188310653
1623422010.068395,6.273898073834207e-09,3.272647067753386e-10,3.86,0.66,1.1547652320587076e-05,-0.00010742002632468939,1.3414634466171265,-0.005859375,-0.00439453125,-6.332675121845757e-06,0.0015931188783699145,-6.356449240175994e-06,0.0015759167823596622,-0.0690354385007094,-0.06763679435984268
1623422010.068395,6.273898073834207e-09,3.272647067753386e-10,3.86,0.66,1.1547652320587076e-05,-0.00010742002632468939,1.3414634466171265,-0.005859375,-0.00439453125,-6.332675121845757e-06,0.0015931188783699145,-6.356449240175994e-06,0.0015759167823596622,-0.0690354385007094,-0.06763679435984268
1623422010.068395,6.273898073834207e-09,3.272647067753386e-10,3.86,0.66,1.1547652320587076e-05,-0.00010742002632468939,1.3414634466171265,-0.005859375,-0.00439453125,-6.332675121845757e-06,0.0015931188783699145,-6.356449240175994e-06,0.0015759167823596622,-0.0690354385007094,-0.06763679435984268
1623422010.068395,6.273898073834207e-09,3.272647067753386e-10,3.86,0.66,1.1547652320587076e-05,-0.00010742002632468939,1.3414634466171265,-0.005859375,-0.00439453125,-6.332675121845757e-06,0.0015931188783699145,-6.356449240175994e-06,0.0015759167823596622,-0.0690354385007094,-0.06763679435984268
1623422010.122395,5.023346970110794e-09,3.206862184434877e-10,3.86,0.66,1.1547652320587076e-05,-0.00010742002632468939,1.3414634466171265,-0.005859375,-0.00439453125,-6.370647313906197e-06,0.0015029529118630897,-6.356449240175994e-06,0.0015759167823596622,-0.06905007809038283,-0.06763679435984268
1623422010.122395,5.023346970110794e-09,3.206862184434877e-10,3.86,0.68,1.1547652320587076e-05,-0.00010742002632468939,1.3414634466171265,-0.005859375,-0.00439453125,-6.370647313906197e-06,0.0015029529118630897,-6.356449240175994e-06,0.0015759167823596622,-0.06905007809038283,-0.06763679435984268
1623422010.122395,5.023346970110794e-09,3.206862184434877e-10,3.86,0.68,1.1547652320587076e-05,-0.00010742002632468939,1.3414634466171265,-0.005859375,-0.00439453125,-6.370647313906197e-06,0.0015029529118630897,-6.356449240175994e-06,0.0015759167823596622,-0.06905007809038283,-0.06763679435984268
1623422010.122395,5.023346970110794e-09,3.206862184434877e-10,3.86,0.68,1.1547652320587076e-05,-0.00010742002632468939,1.3414634466171265,-0.005859375,-0.00439453125,-6.370647313906197e-06,0.0015029529118630897,-6.356449240175994e-06,0.0015759167823596622,-0.06905007809038283,-0.06763679435984268
1623422010.122395,5.023346970110794e-09,3.206862184434877e-10,3.86,0.68,1.1547652320587076e-05,-0.00010742002632468939,1.3414634466171265,-0.005859375,-0.00439453125,-6.370647313906197e-06,0.0015029529118630897,-6.358498065080992e-06,0.0014899656717263271,-0.06905007809038283,-0.06764271652833315
1623422010.122395,4.125630932940844e-09,3.159241506078595e-10,3.86,0.68,1.1547652320587076e-05,-0.00010742002632468939,1.3414634466171265,-0.01318359375,0.0029296875,-6.370647313906197e-06,0.0015029529118630897,-6.358498065080992e-06,0.0014899656717263271,-0.06905007809038283,-0.06764271652833315
1623422010.122395,4.125630932940844e-09,3.159241506078595e-10,3.86,0.68,1.1547652320587076e-05,-0.00010742002632468939,1.3414634466171265,-0.01318359375,0.0029296875,-6.370647313906197e-06,0.0015029529118630897,-6.358498065080992e-06,0.0014899656717263271,-0.06905007809038283,-0.06764271652833315
1623422010.122395,4.125630932940844e-09,3.159241506078595e-10,3.86,0.68,1.1547652320587076e-05,-0.00010742002632468939,1.3414634466171265,-0.01318359375,0.0029296875,-6.370647313906197e-06,0.0015029529118630897,-6.358498065080992e-06,0.0014899656717263271,-0.06905007809038283,-0.06764271652833315
1623422010.122395,4.125630932940844e-09,3.159241506078595e-10,3.86,0.68,1.1547652320587076e-05,-0.00010742002632468939,1.3414634466171265,-0.01318359375,0.0029296875,-6.370647313906197e-06,0.0015029529118630897,-6.358498065080992e-06,0.0014899656717263271,-0.06905007809038283,-0.06764271652833315
1623422010.122395,4.125630932940844e-09,3.159241506078595e-10,3.86,0.68,1.1547652320587076e-05,-0.00010742002632468939,1.3414634466171265,-0.01318359375,0.0029296875,-6.370647313906197e-06,0.0015029529118630897,-6.36021203619813e-06,0.0014562825870876907,-0.06905007809038283,-0.06772056505760023
1623422010.182395,3.192031410148751e-09,3.102399689461281e-10,3.86,0.68,1.1547652320587076e-05,-0.00010742002632468939,1.3414634466171265,-0.01318359375,0.0029296875,-6.371917695865335e-06,0.0018113006569725157,-6.36021203619813e-06,0.0014562825870876907,-0.06904157551456597,-0.06772056505760023
1623422010.182395,3.192031410148751e-09,3.102399689461281e-10,3.85,0.68,1.1547652320587076e-05,-0.00010742002632468939,1.3414634466171265,-0.01318359375,0.0029296875,-6.371917695865335e-06,0.0018113006569725157,-6.3617423636101916e-06,0.001557147774100348,-0.06904157551456597,-0.06770334103822584
1623422010.182395,3.192031410148751e-09,3.102399689461281e-10,3.85,0.68,1.1547652320587076e-05,-0.00010742002632468939,1.3414634466171265,-0.01318359375,0.0029296875,-6.371917695865335e-06,0.0018113006569725157,-6.3617423636101916e-06,0.001557147774100348,-0.06904157551456597,-0.06770334103822584
1623422010.182395,3.192031410148751e-09,3.102399689461281e-10,3.85,0.68,1.1547652320587076e-05,-0.00010742002632468939,1.3414634466171265,-0.01318359375,0.0029296875,-6.371917695865335e-06,0.0018113006569725157,-6.3617423636101916e-06,0.001557147774100348,-0.06904157551456597,-0.06770334103822584
1623422010.182395,3.192031410148751e-09,3.102399689461281e-10,3.85,0.68,1.1547652320587076e-05,-0.00010742002632468939,1.3414634466171265,-0.01171875,0.0126953125,-6.371917695865335e-06,0.0018113006569725157,-6.3617423636101916e-06,0.001557147774100348,-0.06904157551456597,-0.06770334103822584
1623422010.242395,2.5561277945970197e-09,3.0374780502650664e-10,3.85,0.68,1.1547652320587076e-05,-0.00010742002632468939,1.3414634466171265,-0.01171875,0.0126953125,-6.369378965096878e-06,0.001697446975001977,-6.3617423636101916e-06,0.001557147774100348,-0.06904370391017785,-0.06770334103822584
1623422010.242395,2.5561277945970197e-09,3.0374780502650664e-10,3.85,0.68,1.1547652320587076e-05,-0.00010742002632468939,1.3414634466171265,-0.01171875,0.0126953125,-6.369378965096878e-06,0.001697446975001977,-6.3617423636101916e-06,0.001557147774100348,-0.06904370391017785,-0.06770334103822584
1623422010.242395,2.5561277945970197e-09,3.0374780502650664e-10,3.85,0.68,1.1547652320587076e-05,-0.00010742002632468939,1.3414634466171265,-0.01171875,0.0126953125,-6.369378965096878e-06,0.001697446975001977,-6.3617423636101916e-06,0.001557147774100348,-0.06904370391017785,-0.06770334103822584
1623422010.242395,2.5561277945970197e-09,3.0374780502650664e-10,3.85,0.68,1.1547652320587076e-05,-0.00010742002632468939,1.3414634466171265,-0.01171875,0.0126953125,-6.369378965096878e-06,0.001697446975001977,-6.3617423636101916e-06,0.001557147774100348,-0.06904370391017785,-0.06770334103822584
1623422010.242395,2.5561277945970197e-09,3.0374780502650664e-10,3.85,0.68,1.1547652320587076e-05,-0.00010742002632468939,1.3414634466171265,-0.01171875,0.0126953125,-6.369378965096878e-06,0.001697446975001977,-6.3627610449593605e-06,0.001555571228022575,-0.06904370391017785,-0.06768748588120509
1623422010.3023949,1.6351154375846398e-09,2.970510480040804e-10,3.85,0.68,1.1547652320587076e-05,-0.00010742002632468939,1.3414634466171265,-0.01171875,0.0126953125,-6.373632074325871e-06,0.0018639596238410282,-6.3627610449593605e-06,0.001555571228022575,-0.06903687473472926,-0.06768748588120509
1623422010.3023949,1.6351154375846398e-09,2.970510480040804e-10,3.85,0.68,1.1547652320587076e-05,-0.00010742002632468939,1.3414634466171265,-0.01171875,0.0126953125,-6.373632074325871e-06,0.0018639596238410282,-6.3627610449593605e-06,0.001555571228022575,-0.06903687473472926,-0.06768748588120509
1623422010.3023949,1.6351154375846398e-09,2.970510480040804e-10,3.85,0.68,1.1547652320587076e-05,-0.00010742002632468939,1.3414634466171265,-0.01171875,0.0126953125,-6.373632074325871e-06,0.0018639596238410282,-6.3627610449593605e-06,0.001555571228022575,-0.06903687473472926,-0.06768748588120509
1623422010.3023949,1.6351154375846398e-09,2.970510480040804e-10,3.85,0.68,1.1547652320587076e-05,-0.00010742002632468939,1.3414634466171265,-0.01171875,0.0126953125,-6.373632074325871e-06,0.0018639596238410282,-6.3627610449593605e-06,0.001555571228022575,-0.06903687473472926,-0.06768748588120509
1623422010.3023949,1.6351154375846398e-09,2.970510480040804e-10,3.85,0.68,1.1547652320587076e-05,-0.00010742002632468939,1.3414634466171265,0.0009765625,0.00341796875,-6.373632074325871e-06,0.0018639596238410282,-6.364361364889445e-06,0.0016288924968481263,-0.06903687473472926,-0.06766792599740132
1623422010.362395,1.0531172372785655e-09,2.9001193491275194e-10,3.85,0.68,1.1547652320587076e-05,-0.00010742002632468939,1.3414634466171265,0.0009765625,0.00341796875,-6.371095088128385e-06,0.0017460641725255974,-6.364361364889445e-06,0.0016288924968481263,-0.06904037806655647,-0.06766792599740132
1623422010.362395,1.0531172372785655e-09,2.9001193491275194e-10,3.85,0.68,1.1547652320587076e-05,-0.00010742002632468939,1.3414634466171265,0.0009765625,0.00341796875,-6.371095088128385e-06,0.0017460641725255974,-6.364361364889445e-06,0.0016288924968481263,-0.06904037806655647,-0.06766792599740132
1623422010.362395,1.0531172372785655e-09,2.9001193491275194e-10,3.85,0.68,1.1547652320587076e-05,-0.00010742002632468939,1.3414634466171265,0.0009765625,0.00341796875,-6.371095088128385e-06,0.0017460641725255974,-6.364361364889445e-06,0.0016288924968481263,-0.06904037806655647,-0.06766792599740132
1623422010.362395,1.0531172372785655e-09,2.9001193491275194e-10,3.85,0.68,1.1836343219329137e-05,-0.00011010552407242358,1.3414634466171265,0.0009765625,0.00341796875,-6.371095088128385e-06,0.0017460641725255974,-6.365372729809311e-06,0.00160450165711005,-0.06904037806655647,-0.06765302573933256
1623422010.362395,1.0531172372785655e-09,2.9001193491275194e-10,3.85,0.68,1.1836343219329137e-05,-0.00011010552407242358,1.3414634466171265,0.0009765625,0.00341796875,-6.371095088128385e-06,0.0017460641725255974,-6.365372729809311e-06,0.00160450165711005,-0.06904037806655647,-0.06765302573933256
1623422010.422395,2.870402978701148e-10,2.830711713461427e-10,3.85,0.68,1.1836343219329137e-05,-0.00011010552407242358,1.3414634466171265,0.0009765625,0.00341796875,-6.374179421865113e-06,0.001942966798489813,-6.365372729809311e-06,0.00160450165711005,-0.06903222389642961,-0.06765302573933256
1623422010.422395,2.870402978701148e-10,2.830711713461427e-10,3.82,0.67,1.1836343219329137e-05,-0.00011010552407242358,1.3414634466171265,0.0009765625,0.00341796875,-6.374179421865113e-06,0.001942966798489813,-6.365372729809311e-06,0.00160450165711005,-0.06903222389642961,-0.06765302573933256
1623422010.422395,2.870402978701148e-10,2.830711713461427e-10,3.82,0.67,1.1836343219329137e-05,-0.00011010552407242358,1.3414634466171265,0.0009765625,0.00341796875,-6.374179421865113e-06,0.001942966798489813,-6.365372729809311e-06,0.00160450165711005,-0.06903222389642961,-0.06765302573933256
1623422010.422395,2.870402978701148e-10,2.830711713461427e-10,3.82,0.67,1.1836343219329137e-05,-0.00011010552407242358,1.3414634466171265,0.0009765625,0.00341796875,-6.374179421865113e-06,0.001942966798489813,-6.366772078114612e-06,0.0016754498970930148,-0.06903222389642961,-0.06763441092176241
1623422010.422395,2.870402978701148e-10,2.830711713461427e-10,3.82,0.67,1.1547652320587076e-05,-0.00010742002632468939,1.3414634466171265,0.0009765625,0.00341796875,-6.374179421865113e-06,0.001942966798489813,-6.366772078114612e-06,0.0016754498970930148,-0.06903222389642961,-0.06763441092176241
1623422010.422395,-2.621679275152585e-10,2.7802050582905564e-10,3.82,0.67,1.1547652320587076e-05,-0.00010742002632468939,1.2804877758026123,-0.01220703125,-0.0029296875,-6.374179421865113e-06,0.001942966798489813,-6.366772078114612e-06,0.0016754498970930148,-0.06903222389642961,-0.06763441092176241
1623422010.422395,-2.621679275152585e-10,2.7802050582905564e-10,3.82,0.67,1.1547652320587076e-05,-0.00010742002632468939,1.2804877758026123,-0.01220703125,-0.0029296875,-6.374179421865113e-06,0.001942966798489813,-6.366772078114612e-06,0.0016754498970930148,-0.06903222389642961,-0.06763441092176241
1623422010.422395,-2.621679275152585e-10,2.7802050582905564e-10,3.82,0.67,1.1547652320587076e-05,-0.00010742002632468939,1.2804877758026123,-0.01220703125,-0.0029296875,-6.374179421865113e-06,0.001942966798489813,-6.366772078114612e-06,0.0016754498970930148,-0.06903222389642961,-0.06763441092176241
1623422010.422395,-2.621679275152585e-10,2.7802050582905564e-10,3.82,0.67,1.1547652320587076e-05,-0.00010742002632468939,1.2804877758026123,-0.01220703125,-0.0029296875,-6.374179421865113e-06,0.001942966798489813,-6.36782059076445e-06,0.0017099248791140685,-0.06903222389642961,-0.06770634963559952
1623422010.422395,-2.621679275152585e-10,2.7802050582905564e-10,3.82,0.67,1.1547652320587076e-05,-0.00010742002632468939,1.2804877758026123,-0.01220703125,-0.0029296875,-6.374179421865113e-06,0.001942966798489813,-6.36782059076445e-06,0.0017099248791140685,-0.06903222389642961,-0.06770634963559952
1623422010.484425,4.74385861404181e-10,2.73523265066129e-10,3.82,0.67,1.1547652320587076e-05,-0.00010742002632468939,1.2804877758026123,-0.01220703125,-0.0029296875,-6.358461099705402e-06,0.001907218188888971,-6.36782059076445e-06,0.0017099248791140685,-0.06902977686916478,-0.06770634963559952
1623422010.484425,4.74385861404181e-10,2.73523265066129e-10,3.8,0.67,1.1547652320587076e-05,-0.00010742002632468939,1.2804877758026123,-0.01220703125,-0.0029296875,-6.358461099705402e-06,0.001907218188888971,-6.36782059076445e-06,0.0017099248791140685,-0.06902977686916478,-0.06770634963559952
1623422010.484425,4.74385861404181e-10,2.73523265066129e-10,3.8,0.67,1.1547652320587076e-05,-0.00010742002632468939,1.2804877758026123,-0.01220703125,-0.0029296875,-6.358461099705402e-06,0.001907218188888971,-6.36782059076445e-06,0.0017099248791140685,-0.06902977686916478,-0.06770634963559952
1623422010.484425,4.74385861404181e-10,2.73523265066129e-10,3.8,0.67,1.1547652320587076e-05,-0.00010742002632468939,1.402438998222351,-0.005859375,0.009765625,-6.358461099705402e-06,0.001907218188888971,-6.366434037980596e-06,0.0017476960743832602,-0.06902977686916478,-0.06767204372864818
1623422010.484425,4.74385861404181e-10,2.73523265066129e-10,3.8,0.67,1.1547652320587076e-05,-0.00010742002632468939,1.402438998222351,-0.005859375,0.009765625,-6.358461099705402e-06,0.001907218188888971,-6.366434037980596e-06,0.0017476960743832602,-0.06902977686916478,-0.06767204372864818
1623422010.568425,1.4242362731662355e-08,2.6850129646157234e-10,3.8,0.67,1.1547652320587076e-05,-0.00010742002632468939,1.402438998222351,-0.005859375,0.009765625,-6.2036759801325294e-06,0.0018572294308811434,-6.366434037980596e-06,0.0017476960743832602,-0.06898663924578044,-0.06767204372864818
1623422010.568425,1.4242362731662355e-08,2.6850129646157234e-10,3.8,0.67,1.1836343219329137e-05,-0.00011010552407242358,1.402438998222351,-0.005859375,0.009765625,-6.2036759801325294e-06,0.0018572294308811434,-6.366434037980596e-06,0.0017476960743832602,-0.06898663924578044,-0.06767204372864818
1623422010.568425,1.4242362731662355e-08,2.6850129646157234e-10,3.8,0.67,1.1836343219329137e-05,-0.00011010552407242358,1.402438998222351,-0.005859375,0.009765625,-6.2036759801325294e-06,0.0018572294308811434,-6.340106865144749e-06,0.0017687289935514826,-0.06898663924578044,-0.06757814483726363
1623422010.568425,1.4242362731662355e-08,2.6850129646157234e-10,3.8,0.67,1.1836343219329137e-05,-0.00011010552407242358,1.402438998222351,-0.005859375,0.009765625,-6.2036759801325294e-06,0.0018572294308811434,-6.340106865144749e-06,0.0017687289935514826,-0.06898663924578044,-0.06757814483726363
1623422010.568425,1.4242362731662355e-08,2.6850129646157234e-10,3.8,0.67,1.1836343219329137e-05,-0.00011010552407242358,1.402438998222351,-0.005859375,0.009765625,-6.2036759801325294e-06,0.0018572294308811434,-6.340106865144749e-06,0.0017687289935514826,-0.06898663924578044,-0.06757814483726363
1623422010.602425,1.1461907072313354e-08,2.643649226854019e-10,3.82,0.67,1.1836343219329137e-05,-0.00011010552407242358,1.402438998222351,-0.005859375,0.009765625,-6.373436762437809e-06,0.0017895443212887184,-6.340106865144749e-06,0.0017687289935514826,-0.06903764221345036,-0.06757814483726363
1623422010.602425,1.1461907072313354e-08,2.643649226854019e-10,3.82,0.67,1.1836343219329137e-05,-0.00011010552407242358,1.402438998222351,-0.005859375,0.009765625,-6.373436762437809e-06,0.0017895443212887184,-6.340106865144749e-06,0.0017687289935514826,-0.06903764221345036,-0.06757814483726363
1623422010.602425,1.1461907072313354e-08,2.643649226854019e-10,3.82,0.67,1.1547652320587076e-05,-0.00010742002632468939,1.402438998222351,-0.005859375,0.009765625,-6.373436762437809e-06,0.0017895443212887184,-6.3449293355152826e-06,0.001727086908557953,-0.06903764221345036,-0.0676060529312571
1623422010.602425,1.1461907072313354e-08,2.643649226854019e-10,3.82,0.67,1.1547652320587076e-05,-0.00010742002632468939,1.402438998222351,-0.005859375,0.009765625,-6.373436762437809e-06,0.0017895443212887184,-6.3449293355152826e-06,0.001727086908557953,-0.06903764221345036,-0.0676060529312571
1623422010.602425,1.1461907072313354e-08,2.643649226854019e-10,3.82,0.67,1.1547652320587076e-05,-0.00010742002632468939,1.3414634466171265,-0.00048828125,0.00390625,-6.373436762437809e-06,0.0017895443212887184,-6.3449293355152826e-06,0.001727086908557953,-0.06903764221345036,-0.0676060529312571
1623422010.662425,9.219300207162057e-09,2.596747563580789e-10,3.82,0.67,1.1547652320587076e-05,-0.00010742002632468939,1.3414634466171265,-0.00048828125,0.00390625,-6.370872223796365e-06,0.0016765818911458814,-6.3449293355152826e-06,0.001727086908557953,-0.06904253321433892,-0.0676060529312571
1623422010.662425,9.219300207162057e-09,2.596747563580789e-10,3.82,0.67,1.1547652320587076e-05,-0.00010742002632468939,1.3414634466171265,-0.00048828125,0.00390625,-6.370872223796365e-06,0.0016765818911458814,-6.3449293355152826e-06,0.001727086908557953,-0.06904253321433892,-0.0676060529312571
1623422010.662425,9.219300207162057e-09,2.596747563580789e-10,3.82,0.67,1.1547652320587076e-05,-0.00010742002632468939,1.3414634466171265,-0.00048828125,0.00390625,-6.370872223796365e-06,0.0016765818911458814,-6.348523174078317e-06,0.0016505065965346725,-0.06904253321433892,-0.0675941092229216
1623422010.662425,9.219300207162057e-09,2.596747563580789e-10,3.82,0.67,1.1547652320587076e-05,-0.00010742002632468939,1.3414634466171265,-0.00048828125,0.00390625,-6.370872223796365e-06,0.0016765818911458814,-6.348523174078317e-06,0.0016505065965346725,-0.06904253321433892,-0.0675941092229216
1623422010.662425,9.219300207162057e-09,2.596747563580789e-10,3.82,0.67,1.1547652320587076e-05,-0.00010742002632468939,1.3414634466171265,-0.00048828125,0.00390625,-6.370872223796365e-06,0.0016765818911458814,-6.348523174078317e-06,0.0016505065965346725,-0.06904253321433892,-0.0675941092229216
1623422010.722425,7.160769950555445e-09,2.5458177452318664e-10,3.83,0.67,1.1547652320587076e-05,-0.00010742002632468939,1.3414634466171265,-0.00048828125,0.00390625,-6.372006143971226e-06,0.0016790008968519757,-6.348523174078317e-06,0.0016505065965346725,-0.06904281181347022,-0.0675941092229216
1623422010.722425,7.160769950555445e-09,2.5458177452318664e-10,3.83,0.67,1.1547652320587076e-05,-0.00010742002632468939,1.3414634466171265,-0.00048828125,0.00390625,-6.372006143971226e-06,0.0016790008968519757,-6.3519036446724055e-06,0.0015967815664765695,-0.06904281181347022,-0.06758664539279109
1623422010.722425,7.160769950555445e-09,2.5458177452318664e-10,3.83,0.67,1.1547652320587076e-05,-0.00010742002632468939,1.3414634466171265,-0.00048828125,0.00390625,-6.372006143971226e-06,0.0016790008968519757,-6.3519036446724055e-06,0.0015967815664765695,-0.06904281181347022,-0.06758664539279109
1623422010.722425,7.160769950555445e-09,2.5458177452318664e-10,3.83,0.67,1.1547652320587076e-05,-0.00010742002632468939,1.3414634466171265,-0.00048828125,0.00390625,-6.372006143971226e-06,0.0016790008968519757,-6.3519036446724055e-06,0.0015967815664765695,-0.06904281181347022,-0.06758664539279109
1623422010.722425,7.160769950555445e-09,2.5458177452318664e-10,3.83,0.67,1.1547652320587076e-05,-0.00010742002632468939,1.402438998222351,-0.0107421875,0.001953125,-6.372006143971226e-06,0.0016790008968519757,-6.3519036446724055e-06,0.0015967815664765695,-0.06904281181347022,-0.06758664539279109
1623422010.722425,5.681250861618977e-09,2.5086979389787665e-10,3.83,0.67,1.1547652320587076e-05,-0.00010742002632468939,1.402438998222351,-0.0107421875,0.001953125,-6.372006143971226e-06,0.0016790008968519757,-6.3519036446724055e-06,0.0015967815664765695,-0.06904281181347022,-0.06758664539279109
1623422010.722425,5.681250861618977e-09,2.5086979389787665e-10,3.83,0.67,1.1547652320587076e-05,-0.00010742002632468939,1.402438998222351,-0.0107421875,0.001953125,-6.372006143971226e-06,0.0016790008968519757,-6.3547308511835416e-06,0.0015789052729763145,-0.06904281181347022,-0.06766605089697061
1623422010.722425,5.681250861618977e-09,2.5086979389787665e-10,3.83,0.67,1.1547652320587076e-05,-0.00010742002632468939,1.402438998222351,-0.0107421875,0.001953125,-6.372006143971226e-06,0.0016790008968519757,-6.3547308511835416e-06,0.0015789052729763145,-0.06904281181347022,-0.06766605089697061
1623422010.722425,5.681250861618977e-09,2.5086979389787665e-10,3.83,0.67,1.1547652320587076e-05,-0.00010742002632468939,1.402438998222351,-0.0107421875,0.001953125,-6.372006143971226e-06,0.0016790008968519757,-6.3547308511835416e-06,0.0015789052729763145,-0.06904281181347022,-0.06766605089697061
1623422010.722425,5.681250861618977e-09,2.5086979389787665e-10,3.83,0.67,1.1547652320587076e-05,-0.00010742002632468939,1.402438998222351,-0.0107421875,0.001953125,-6.372006143971226e-06,0.0016790008968519757,-6.3547308511835416e-06,0.0015789052729763145,-0.06904281181347022,-0.06766605089697061
1623422010.782425,4.319034879729234e-09,2.462234560766419e-10,3.82,0.67,1.1547652320587076e-05,-0.00010742002632468939,1.402438998222351,-0.0107421875,0.001953125,-6.371881060788515e-06,0.0018319745617200235,-6.3547308511835416e-06,0.0015789052729763145,-0.06903896629235592,-0.06766605089697061
1623422010.782425,4.319034879729234e-09,2.462234560766419e-10,3.82,0.67,1.1547652320587076e-05,-0.00010742002632468939,1.402438998222351,-0.0107421875,0.001953125,-6.371881060788515e-06,0.0018319745617200235,-6.356985445950724e-06,0.001636688915794017,-0.06903896629235592,-0.0676471500854303
1623422010.782425,4.319034879729234e-09,2.462234560766419e-10,3.82,0.67,1.1547652320587076e-05,-0.00010742002632468939,1.402438998222351,-0.0107421875,0.001953125,-6.371881060788515e-06,0.0018319745617200235,-6.356985445950724e-06,0.001636688915794017,-0.06903896629235592,-0.0676471500854303
1623422010.782425,4.319034879729234e-09,2.462234560766419e-10,3.82,0.67,1.1547652320587076e-05,-0.00010742002632468939,1.3414634466171265,-0.00439453125,0.00048828125,-6.371881060788515e-06,0.0018319745617200235,-6.356985445950724e-06,0.001636688915794017,-0.06903896629235592,-0.0676471500854303
1623422010.782425,4.319034879729234e-09,2.462234560766419e-10,3.82,0.67,1.1547652320587076e-05,-0.00010742002632468939,1.3414634466171265,-0.00439453125,0.00048828125,-6.371881060788515e-06,0.0018319745617200235,-6.356985445950724e-06,0.001636688915794017,-0.06903896629235592,-0.0676471500854303
1623422010.842425,3.3036611890796287e-09,2.407053383555405e-10,3.82,0.67,1.1547652320587076e-05,-0.00010742002632468939,1.3414634466171265,-0.00439453125,0.00048828125,-6.369251665958735e-06,0.0017167232607369115,-6.356985445950724e-06,0.001636688915794017,-0.06904205749169948,-0.0676471500854303
1623422010.842425,3.3036611890796287e-09,2.407053383555405e-10,3.82,0.67,1.1547652320587076e-05,-0.00010742002632468939,1.3414634466171265,-0.00439453125,0.00048828125,-6.369251665958735e-06,0.0017167232607369115,-6.356985445950724e-06,0.001636688915794017,-0.06904205749169948,-0.0676471500854303
1623422010.842425,3.3036611890796287e-09,2.407053383555405e-10,3.82,0.67,1.1547652320587076e-05,-0.00010742002632468939,1.3414634466171265,-0.00439453125,0.00048828125,-6.369251665958735e-06,0.0017167232607369115,-6.356985445950724e-06,0.001636688915794017,-0.06904205749169948,-0.0676471500854303
1623422010.842425,3.3036611890796287e-09,2.407053383555405e-10,3.82,0.67,1.1547652320587076e-05,-0.00010742002632468939,1.3414634466171265,-0.00439453125,0.00048828125,-6.369251665958735e-06,0.0017167232607369115,-6.356985445950724e-06,0.001636688915794017,-0.06904205749169948,-0.0676471500854303
1623422010.842425,3.3036611890796287e-09,2.407053383555405e-10,3.82,0.67,1.1547652320587076e-05,-0.00010742002632468939,1.3414634466171265,-0.00439453125,0.00048828125,-6.373121208784166e-06,0.0018956089597957824,-6.358659270515027e-06,0.001609757199153339,-0.06903538597422602,-0.0676315989093882
1623422010.902425,2.0807030631539946e-09,2.348380709253681e-10,3.84,0.65,1.1547652320587076e-05,-0.00010742002632468939,1.3414634466171265,-0.00439453125,0.00048828125,-6.373121208784166e-06,0.0018956089597957824,-6.358659270515027e-06,0.001609757199153339,-0.06903538597422602,-0.0676315989093882
1623422010.902425,2.0807030631539946e-09,2.348380709253681e-10,3.84,0.65,1.1547652320587076e-05,-0.00010742002632468939,1.3414634466171265,-0.00439453125,0.00048828125,-6.373121208784166e-06,0.0018956089597957824,-6.358659270515027e-06,0.001609757199153339,-0.06903538597422602,-0.0676315989093882
1623422010.902425,2.0807030631539946e-09,2.348380709253681e-10,3.84,0.65,1.1547652320587076e-05,-0.00010742002632468939,1.3414634466171265,-0.00439453125,0.00048828125,-6.373121208784166e-06,0.0018956089597957824,-6.358659270515027e-06,0.001609757199153339,-0.06903538597422602,-0.0676315989093882
1623422010.902425,2.0807030631539946e-09,2.348380709253681e-10,3.84,0.65,1.1547652320587076e-05,-0.00010742002632468939,1.3414634466171265,-0.00439453125,0.00048828125,-6.373121208784166e-06,0.0018956089597957824,-6.358659270515027e-06,0.001609757199153339,-0.06903538597422602,-0.0676315989093882
1623422010.902425,2.0807030631539946e-09,2.348380709253681e-10,3.84,0.65,1.1547652320587076e-05,-0.00010742002632468939,1.3414634466171265,0.001953125,0.0048828125,-6.370608463726936e-06,0.0017757610096879063,-6.360790017980633e-06,0.0016714973554297118,-0.06903894650367594,-0.0676130510499809
1623422010.962425,1.234515806241261e-09,2.284873203464457e-10,3.84,0.65,1.1547652320587076e-05,-0.00010742002632468939,1.3414634466171265,0.001953125,0.0048828125,-6.370608463726936e-06,0.0017757610096879063,-6.360790017980633e-06,0.0016714973554297118,-0.06903894650367594,-0.0676130510499809
1623422010.962425,1.234515806241261e-09,2.284873203464457e-10,3.84,0.65,1.1547652320587076e-05,-0.00010742002632468939,1.3414634466171265,0.001953125,0.0048828125,-6.370608463726936e-06,0.0017757610096879063,-6.360790017980633e-06,0.0016714973554297118,-0.06903894650367594,-0.0676130510499809
1623422010.962425,1.234515806241261e-09,2.284873203464457e-10,3.84,0.65,1.1547652320587076e-05,-0.00010742002632468939,1.3414634466171265,0.001953125,0.0048828125,-6.370608463726936e-06,0.0017757610096879063,-6.360790017980633e-06,0.0016714973554297118,-0.06903894650367594,-0.0676130510499809
1623422010.962425,1.234515806241261e-09,2.284873203464457e-10,3.84,0.65,1.1547652320587076e-05,-0.00010742002632468939,1.3414634466171265,0.001953125,0.0048828125,-6.370608463726936e-06,0.0017757610096879063,-6.362278328414851e-06,0.0016398245664743798,-0.06903894650367594,-0.06759969177593889
1623422010.962425,1.234515806241261e-09,2.284873203464457e-10,3.84,0.65,1.1547652320587076e-05,-0.00010742002632468939,1.3414634466171265,0.001953125,0.0048828125,-6.370608463726936e-06,0.0017757610096879063,-6.362278328414851e-06,0.0016398245664743798,-0.06903894650367594,-0.06759969177593889
1623422011.022425,1.8519679442176245e-10,2.2222492868693282e-10,3.84,0.65,1.1547652320587076e-05,-0.00010742002632468939,1.3414634466171265,0.001953125,0.0048828125,-6.374361628137682e-06,0.001832366683687448,-6.362278328414851e-06,0.0016398245664743798,-0.06903630044221706,-0.06759969177593889
1623422011.022425,1.8519679442176245e-10,2.2222492868693282e-10,3.84,0.65,1.1547652320587076e-05,-0.00010742002632468939,1.3414634466171265,0.001953125,0.0048828125,-6.374361628137682e-06,0.001832366683687448,-6.362278328414851e-06,0.0016398245664743798,-0.06903630044221706,-0.06759969177593889
1623422011.022425,1.8519679442176245e-10,2.2222492868693282e-10,3.84,0.65,1.1547652320587076e-05,-0.00010742002632468939,1.3414634466171265,-0.00048828125,0.00830078125,-6.374361628137682e-06,0.001832366683687448,-6.362278328414851e-06,0.0016398245664743798,-0.06903630044221706,-0.06759969177593889
1623422011.022425,1.8519679442176245e-10,2.2222492868693282e-10,3.84,0.65,1.1547652320587076e-05,-0.00010742002632468939,1.3414634466171265,-0.00048828125,0.00830078125,-6.374361628137682e-06,0.001832366683687448,-6.362278328414851e-06,0.0016398245664743798,-0.06903630044221706,-0.06759969177593889
1623422011.022425,1.8519679442176245e-10,2.2222492868693282e-10,3.84,0.65,1.1547652320587076e-05,-0.00010742002632468939,1.3414634466171265,-0.00048828125,0.00830078125,-6.081141008466544e-06,0.0017116555706791783,-6.364207451550174e-06,0.0016488649814752657,-0.0689581951232418,-0.0675873376853589
1623422011.068425,2.2987945657014055e-08,2.1692598501251956e-10,3.84,0.65,1.1547652320587076e-05,-0.00010742002632468939,1.3414634466171265,-0.00048828125,0.00830078125,-6.081141008466544e-06,0.0017116555706791783,-6.364207451550174e-06,0.0016488649814752657,-0.0689581951232418,-0.0675873376853589
1623422011.068425,2.2987945657014055e-08,2.1692598501251956e-10,3.84,0.65,1.1547652320587076e-05,-0.00010742002632468939,1.3414634466171265,-0.00048828125,0.00830078125,-6.081141008466544e-06,0.0017116555706791783,-6.364207451550174e-06,0.0016488649814752657,-0.0689581951232418,-0.0675873376853589
1623422011.068425,2.2987945657014055e-08,2.1692598501251956e-10,3.84,0.65,1.1547652320587076e-05,-0.00010742002632468939,1.3414634466171265,-0.00048828125,0.00830078125,-6.081141008466544e-06,0.0017116555706791783,-6.364207451550174e-06,0.0016488649814752657,-0.0689581951232418,-0.0675873376853589
1623422011.068425,2.2987945657014055e-08,2.1692598501251956e-10,3.84,0.65,1.1547652320587076e-05,-0.00010742002632468939,1.3414634466171265,-0.00048828125,0.00830078125,-6.081141008466544e-06,0.0017116555706791783,-6.3206591189971116e-06,0.0016495709646189884,-0.0689581951232418,-0.06755358097507141
1623422011.082425,1.870038344313011e-08,2.1236793973120744e-10,3.84,0.65,1.1547652320587076e-05,-0.00010742002632468939,1.3414634466171265,-0.00048828125,0.00830078125,-6.376615702841852e-06,0.001683710348967334,-6.3206591189971116e-06,0.0016495709646189884,-0.06904154039151666,-0.06755358097507141
1623422011.082425,1.870038344313011e-08,2.1236793973120744e-10,3.81,0.64,1.1547652320587076e-05,-0.00010742002632468939,1.3414634466171265,-0.00048828125,0.00830078125,-6.376615702841852e-06,0.001683710348967334,-6.3206591189971116e-06,0.0016495709646189884,-0.06904154039151666,-0.06755358097507141
1623422011.082425,1.870038344313011e-08,2.1236793973120744e-10,3.81,0.64,1.1547652320587076e-05,-0.00010742002632468939,1.3414634466171265,-0.00048828125,0.00830078125,-6.376615702841852e-06,0.001683710348967334,-6.3206591189971116e-06,0.0016495709646189884,-0.06904154039151666,-0.06755358097507141
1623422011.082425,1.870038344313011e-08,2.1236793973120744e-10,3.81,0.64,1.1547652320587076e-05,-0.00010742002632468939,1.3414634466171265,-0.00048828125,0.00830078125,-6.376615702841852e-06,0.001683710348967334,-6.3206591189971116e-06,0.0016495709646189884,-0.06904154039151666,-0.06755358097507141
1623422011.082425,1.870038344313011e-08,2.1236793973120744e-10,3.81,0.64,1.1547652320587076e-05,-0.00010742002632468939,1.3414634466171265,-0.0029296875,0.0009765625,-6.376615702841852e-06,0.001683710348967334,-6.328517096889612e-06,0.0016175361598889377,-0.06904154039151666,-0.06761633203705078
1623422011.142425,1.500948815954972e-08,2.0707973647958818e-10,3.81,0.64,1.1547652320587076e-05,-0.00010742002632468939,1.3414634466171265,-0.0029296875,0.0009765625,-6.373644821086917e-06,0.0015779070014082714,-6.328517096889612e-06,0.0016175361598889377,-0.06904682716713072,-0.06761633203705078
1623422011.142425,1.500948815954972e-08,2.0707973647958818e-10,3.81,0.64,1.1836343219329137e-05,-0.00011010552407242358,1.3414634466171265,-0.0029296875,0.0009765625,-6.373644821086917e-06,0.0015779070014082714,-6.328517096889612e-06,0.0016175361598889377,-0.06904682716713072,-0.06761633203705078
1623422011.142425,1.500948815954972e-08,2.0707973647958818e-10,3.81,0.64,1.1836343219329137e-05,-0.00011010552407242358,1.3414634466171265,-0.0029296875,0.0009765625,-6.373644821086917e-06,0.0015779070014082714,-6.328517096889612e-06,0.0016175361598889377,-0.06904682716713072,-0.06761633203705078
1623422011.142425,1.500948815954972e-08,2.0707973647958818e-10,3.81,0.64,1.1836343219329137e-05,-0.00011010552407242358,1.3414634466171265,-0.0029296875,0.0009765625,-6.373644821086917e-06,0.0015779070014082714,-6.334425245767739e-06,0.0015537089368113284,-0.06904682716713072,-0.06760804471640536
1623422011.142425,1.500948815954972e-08,2.0707973647958818e-10,3.81,0.64,1.1836343219329137e-05,-0.00011010552407242358,1.3414634466171265,-0.0029296875,0.0009765625,-6.373644821086917e-06,0.0015779070014082714,-6.334425245767739e-06,0.0015537089368113284,-0.06904682716713072,-0.06760804471640536
1623422011.202425,1.1386525486206466e-08,2.0146577269561572e-10,3.81,0.64,1.1836343219329137e-05,-0.00011010552407242358,1.3414634466171265,-0.0029296875,0.0009765625,-6.377441482553679e-06,0.001794855358860439,-6.334425245767739e-06,0.0015537089368113284,-0.06903950345925335,-0.06760804471640536
1623422011.202425,1.1386525486206466e-08,2.0146577269561572e-10,3.84,0.66,1.1836343219329137e-05,-0.00011010552407242358,1.3414634466171265,-0.0029296875,0.0009765625,-6.377441482553679e-06,0.001794855358860439,-6.334425245767739e-06,0.0015537089368113284,-0.06903950345925335,-0.06760804471640536
1623422011.202425,1.1386525486206466e-08,2.0146577269561572e-10,3.84,0.66,1.1547652320587076e-05,-0.00010742002632468939,1.3414634466171265,-0.0029296875,0.0009765625,-6.377441482553679e-06,0.001794855358860439,-6.334425245767739e-06,0.0015537089368113284,-0.06903950345925335,-0.06760804471640536
1623422011.202425,1.1386525486206466e-08,2.0146577269561572e-10,3.84,0.66,1.1547652320587076e-05,-0.00010742002632468939,1.3414634466171265,-0.0029296875,0.0009765625,-6.377441482553679e-06,0.001794855358860439,-6.340424833606278e-06,0.0015968262412176212,-0.06903950345925335,-0.067597114650255
1623422011.202425,1.1386525486206466e-08,2.0146577269561572e-10,3.84,0.66,1.1547652320587076e-05,-0.00010742002632468939,1.3414634466171265,-0.00634765625,0.0068359375,-6.377441482553679e-06,0.001794855358860439,-6.340424833606278e-06,0.0015968262412176212,-0.06903950345925335,-0.067597114650255
1623422011.262425,8.466798009947073e-09,1.9530153392105379e-10,3.84,0.66,1.1547652320587076e-05,-0.00010742002632468939,1.3414634466171265,-0.00634765625,0.0068359375,-6.374323422958862e-06,0.001681363586754192,-6.340424833606278e-06,0.0015968262412176212,-0.06904322659658098,-0.067597114650255
1623422011.262425,8.466798009947073e-09,1.9530153392105379e-10,3.84,0.66,1.1547652320587076e-05,-0.00010742002632468939,1.3414634466171265,-0.00634765625,0.0068359375,-6.374323422958862e-06,0.001681363586754192,-6.340424833606278e-06,0.0015968262412176212,-0.06904322659658098,-0.067597114650255
1623422011.262425,8.466798009947073e-09,1.9530153392105379e-10,3.84,0.66,1.1547652320587076e-05,-0.00010742002632468939,1.3414634466171265,-0.00634765625,0.0068359375,-6.374323422958862e-06,0.001681363586754192,-6.340424833606278e-06,0.0015968262412176212,-0.06904322659658098,-0.067597114650255
1623422011.262425,8.466798009947073e-09,1.9530153392105379e-10,3.84,0.66,1.1547652320587076e-05,-0.00010742002632468939,1.3414634466171265,-0.00634765625,0.0068359375,-6.374323422958862e-06,0.001681363586754192,-6.345306846992966e-06,0.0015603348802454803,-0.06904322659658098,-0.06759034589727801
1623422011.262425,8.466798009947073e-09,1.9530153392105379e-10,3.84,0.66,1.1272709343757015e-05,-0.00010486241080798209,1.3414634466171265,-0.00634765625,0.0068359375,-6.374323422958862e-06,0.001681363586754192,-6.345306846992966e-06,0.0015603348802454803,-0.06904322659658098,-0.06759034589727801
1623422011.322425,5.787384731846626e-09,1.8893986761077205e-10,3.84,0.65,1.1272709343757015e-05,-0.00010486241080798209,1.3414634466171265,-0.00634765625,0.0068359375,-6.376019377714812e-06,0.0018632554976204447,-6.345306846992966e-06,0.0015603348802454803,-0.06903581305072039,-0.06759034589727801
1623422011.322425,5.787384731846626e-09,1.8893986761077205e-10,3.84,0.65,1.1272709343757015e-05,-0.00010486241080798209,1.3414634466171265,-0.00634765625,0.0068359375,-6.376019377714812e-06,0.0018632554976204447,-6.345306846992966e-06,0.0015603348802454803,-0.06903581305072039,-0.06759034589727801
1623422011.322425,5.787384731846626e-09,1.8893986761077205e-10,3.84,0.65,1.1272709343757015e-05,-0.00010486241080798209,1.3414634466171265,-0.00634765625,0.0068359375,-6.376019377714812e-06,0.0018632554976204447,-6.349912465866129e-06,0.001614119810633222,-0.06903581305072039,-0.06758040476285981
