time,la_x,la_y,uwb_x,uwb_y,vel_linear_x,vel_angular_z,mpu_ang_vel_z,mpu_linear_acc_x,mpu_linear_acc_y,odom_linear_x,odom_angular_z,odom_filtered_linear_x,odom_filtered_angular_z,odom_yaw,odom_filtered_yaw
1623764914.893403,0.0,0.0,0.0,0.0,,,1.1585365533828735,-0.0009765625,0.0078125,0.0,0.0017186615472404325,0.0,0.0015906272051293983,8.247368819986313e-05,0.0014877198378407668
1623764914.893403,0.0,0.0,0.0,0.0,,,1.1585365533828735,-0.0009765625,0.0078125,0.0,0.0017186615472404325,0.0,0.001595443660074621,8.247368819986313e-05,0.001413206905074762
1623764914.893403,0.0,0.0,0.0,0.0,,,1.1585365533828735,-0.0009765625,0.0078125,0.0,0.0017186615472404325,0.0,0.001595443660074621,8.247368819986313e-05,0.001413206905074762
1623764914.893403,0.0,0.0,0.0,0.0,0.0,0.0,1.1585365533828735,-0.0009765625,0.0078125,0.0,0.0017186615472404325,0.0,0.001595443660074621,8.247368819986313e-05,0.001413206905074762
1623764914.893403,0.0,0.0,2.02,2.36,0.0,0.0,1.1585365533828735,-0.0009765625,0.0078125,0.0,0.0017186615472404325,0.0,0.001595443660074621,8.247368819986313e-05,0.001413206905074762
1623764914.893403,0.0,0.0,2.02,2.36,0.0,0.0,1.1585365533828735,-0.0009765625,0.0078125,0.0,0.0017186615472404325,0.0,0.001595443660074621,8.247368819986313e-05,0.001413206905074762
1623764914.975403,0.0,0.0,2.02,2.36,0.0,0.0,1.1585365533828735,-0.0009765625,0.0078125,0.0,0.0017489468594200119,0.0,0.0016358860779102627,0.00012132824413276437,0.0014922671933453825
1623764914.975403,0.0,0.0,2.02,2.36,0.0,0.0,1.1585365533828735,-0.0009765625,0.0078125,0.0,0.0017489468594200119,0.0,0.0016358860779102627,0.00012132824413276437,0.0014922671933453825
1623764914.975403,0.0,0.0,2.02,2.36,0.0,0.0,1.1585365533828735,-0.0009765625,0.0078125,0.0,0.0017489468594200119,0.0,0.0016358860779102627,0.00012132824413276437,0.0014922671933453825
1623764914.975403,0.0,0.0,2.02,2.36,0.0,0.0,1.1585365533828735,-0.0009765625,0.0078125,0.0,0.0017489468594200119,0.0,0.0016358860779102627,0.00012132824413276437,0.0014922671933453825
1623764914.975403,0.0,0.0,2.02,2.36,0.0,0.0,1.2195122241973877,0.0048828125,0.00830078125,0.0,0.0017489468594200119,0.0,0.0016358860779102627,0.00012132824413276437,0.0014922671933453825
1623764915.0134032,0.0,0.0,2.02,2.36,0.0,0.0,1.2195122241973877,0.0048828125,0.00830078125,0.0,0.0016778913656874653,0.0,0.0016064013300782095,8.10099827926231e-05,0.0014727337953914534
1623764915.0134032,0.0,0.0,2.02,2.36,0.0,0.0,1.2195122241973877,0.0048828125,0.00830078125,0.0,0.0016778913656874653,0.0,0.0016064013300782095,8.10099827926231e-05,0.0014727337953914534
1623764915.0134032,0.0,0.0,2.02,2.36,0.0,0.0,1.2195122241973877,0.0048828125,0.00830078125,0.0,0.0016778913656874653,0.0,0.0016064013300782095,8.10099827926231e-05,0.0014727337953914534
1623764915.0134032,0.0,0.0,2.01,2.37,0.0,0.0,1.2195122241973877,0.0048828125,0.00830078125,0.0,0.0016778913656874653,0.0,0.0016064013300782095,8.10099827926231e-05,0.0014727337953914534
1623764915.0134032,0.0,0.0,2.01,2.37,0.0,0.0,1.2195122241973877,0.0048828125,0.00830078125,0.0,0.0016778913656874653,0.0,0.0016064013300782095,8.10099827926231e-05,0.0014727337953914534
1623764915.0794032,0.0,0.0,2.01,2.37,0.0,0.0,1.2195122241973877,0.0048828125,0.00830078125,0.0,0.001657456082534234,0.0,0.0015847452800303616,8.952878443585666e-05,0.0015045065137317707
1623764915.0794032,0.0,0.0,2.01,2.37,0.0,0.0,1.2195122241973877,0.0048828125,0.00830078125,0.0,0.001657456082534234,0.0,0.0015847452800303616,8.952878443585666e-05,0.0015045065137317707
1623764915.0794032,0.0,0.0,2.01,2.37,0.0,0.0,1.2195122241973877,0.0048828125,0.00830078125,0.0,0.001657456082534234,0.0,0.0015847452800303616,8.952878443585666e-05,0.0015045065137317707
1623764915.0794032,0.0,0.0,2.01,2.37,0.0,0.0,1.2195122241973877,0.0048828125,0.00830078125,0.0,0.001657456082534234,0.0,0.0015847452800303616,8.952878443585666e-05,0.0015045065137317707
1623764915.0794032,0.0,0.0,2.01,2.37,0.0,0.0,1.2195122241973877,0.0048828125,0.00830078125,0.0,0.001657456082534234,0.0,0.0015847452800303616,8.952878443585666e-05,0.0015045065137317707
1623764915.133403,0.0,0.0,2.01,2.37,0.0,0.0,1.2195122241973877,-0.0009765625,0.0048828125,0.0,0.001563267889245192,0.0,0.0015199978683797626,7.614789156254566e-05,0.0015025841416087021
1623764915.133403,0.0,0.0,2.01,2.37,0.0,0.0,1.2195122241973877,-0.0009765625,0.0048828125,0.0,0.001563267889245192,0.0,0.0015199978683797626,7.614789156254566e-05,0.0015025841416087021
1623764915.133403,0.0,0.0,2.01,2.37,0.0,0.0,1.2195122241973877,-0.0009765625,0.0048828125,0.0,0.001563267889245192,0.0,0.0015199978683797626,7.614789156254566e-05,0.0015025841416087021
1623764915.133403,0.0,0.0,2.01,2.38,0.0,0.0,1.2195122241973877,-0.0009765625,0.0048828125,0.0,0.001563267889245192,0.0,0.0015199978683797626,7.614789156254566e-05,0.0015025841416087021
1623764915.133403,0.0,0.0,2.01,2.38,0.0,0.0,1.2195122241973877,-0.0009765625,0.0048828125,0.0,0.001563267889245192,0.0,0.0015199978683797626,7.614789156254566e-05,0.0015025841416087021
1623764915.193403,0.0,0.0,2.01,2.38,0.0,0.0,1.2195122241973877,-0.0009765625,0.0048828125,0.0,0.0017432850833922699,0.0,0.0015590417668236987,8.140923467074232e-05,0.0015123508286868147
1623764915.193403,0.0,0.0,2.01,2.38,0.0,0.0,1.2195122241973877,-0.0009765625,0.0048828125,0.0,0.0017432850833922699,0.0,0.0015590417668236987,8.140923467074232e-05,0.0015123508286868147
1623764915.193403,0.0,0.0,2.01,2.38,0.0,0.0,1.2195122241973877,-0.0009765625,0.0048828125,0.0,0.0017432850833922699,0.0,0.0015590417668236987,8.140923467074232e-05,0.0015123508286868147
1623764915.193403,0.0,0.0,2.01,2.38,0.0,0.0,1.2195122241973877,-0.0009765625,0.0048828125,0.0,0.0017432850833922699,0.0,0.0015590417668236987,8.140923467074232e-05,0.0015123508286868147
1623764915.193403,0.0,0.0,2.01,2.38,0.0,0.0,1.2195122241973877,-0.0009765625,0.0048828125,0.0,0.0017432850833922699,0.0,0.0015590417668236987,8.140923467074232e-05,0.0015123508286868147
1623764915.2534032,0.0,0.0,2.01,2.38,0.0,0.0,1.2804877758026123,0.0029296875,0.017578125,0.0,0.0016334345761334318,0.0,0.001519973262591929,7.85487466362133e-05,0.0015173468506309452
1623764915.2534032,0.0,0.0,2.01,2.38,0.0,0.0,1.2804877758026123,0.0029296875,0.017578125,0.0,0.0016334345761334318,0.0,0.001519973262591929,7.85487466362133e-05,0.0015173468506309452
1623764915.2534032,0.0,0.0,2.02,2.37,0.0,0.0,1.2804877758026123,0.0029296875,0.017578125,0.0,0.0016334345761334318,0.0,0.001519973262591929,7.85487466362133e-05,0.0015173468506309452
1623764915.2534032,0.0,0.0,2.02,2.37,0.0,0.0,1.2804877758026123,0.0029296875,0.017578125,0.0,0.0016334345761334318,0.0,0.001519973262591929,7.85487466362133e-05,0.0015173468506309452
1623764915.2534032,0.0,0.0,2.02,2.37,0.0,0.0,1.2804877758026123,0.0029296875,0.017578125,0.0,0.0016334345761334318,0.0,0.001519973262591929,7.85487466362133e-05,0.0015173468506309452
1623764915.287403,0.0,0.0,2.02,2.37,0.0,0.0,1.2804877758026123,0.0029296875,0.017578125,0.0,0.001848162786566998,0.0,0.0016249760087900375,0.0001473914378371886,0.001530363048030578
1623764915.287403,0.0,0.0,2.02,2.37,0.0,0.0,1.2804877758026123,0.0029296875,0.017578125,0.0,0.001848162786566998,0.0,0.0016249760087900375,0.0001473914378371886,0.001530363048030578
1623764915.287403,0.0,0.0,2.02,2.37,0.0,0.0,1.2804877758026123,0.0029296875,0.017578125,0.0,0.001848162786566998,0.0,0.0016249760087900375,0.0001473914378371886,0.001530363048030578
1623764915.287403,0.0,0.0,2.02,2.37,0.0,0.0,1.2804877758026123,0.0087890625,0.00537109375,0.0,0.001848162786566998,0.0,0.0016249760087900375,0.0001473914378371886,0.001530363048030578
1623764915.287403,0.0,0.0,2.02,2.37,0.0,0.0,1.2804877758026123,0.0087890625,0.00537109375,0.0,0.0017952422240642924,0.0,0.0016249760087900375,8.490154451035627e-05,0.001530363048030578
1623764915.3134031,0.0,0.0,2.02,2.37,0.0,0.0,1.2804877758026123,0.0087890625,0.00537109375,0.0,0.0017952422240642924,0.0,0.0016336547656943241,8.490154451035627e-05,0.0014923196545767908
1623764915.3134031,0.0,0.0,2.02,2.37,0.0,0.0,1.2804877758026123,0.0087890625,0.00537109375,0.0,0.0017952422240642924,0.0,0.0016336547656943241,8.490154451035627e-05,0.0014923196545767908
1623764915.3134031,0.0,0.0,2.02,2.37,0.0,0.0,1.2804877758026123,0.0087890625,0.00537109375,0.0,0.0017952422240642924,0.0,0.0016336547656943241,8.490154451035627e-05,0.0014923196545767908
1623764915.3134031,0.0,0.0,2.01,2.38,0.0,0.0,1.2804877758026123,0.0087890625,0.00537109375,0.0,0.0017952422240642924,0.0,0.0016336547656943241,8.490154451035627e-05,0.0014923196545767908
1623764915.3134031,0.0,0.0,2.01,2.38,0.0,0.0,1.2804877758026123,0.0087890625,0.00537109375,0.0,0.0018943976021141926,0.0,0.0016336547656943241,8.8075649412994e-05,0.0014923196545767908
1623764915.373403,0.0,0.0,2.01,2.38,0.0,0.0,1.2804877758026123,0.0087890625,0.00537109375,0.0,0.0018943976021141926,0.0,0.0017025008400108177,8.8075649412994e-05,0.001512289656167196
1623764915.373403,0.0,0.0,2.01,2.38,0.0,0.0,1.2804877758026123,0.0087890625,0.00537109375,0.0,0.0018943976021141926,0.0,0.0017025008400108177,8.8075649412994e-05,0.001512289656167196
1623764915.373403,0.0,0.0,2.01,2.38,0.0,0.0,1.2804877758026123,0.0087890625,0.00537109375,0.0,0.0018943976021141926,0.0,0.0017025008400108177,8.8075649412994e-05,0.001512289656167196
1623764915.373403,0.0,0.0,2.01,2.38,0.0,0.0,1.2195122241973877,-0.00390625,0.017578125,0.0,0.0018943976021141926,0.0,0.0017025008400108177,8.8075649412994e-05,0.001512289656167196
1623764915.373403,0.0,0.0,2.01,2.38,0.0,0.0,1.2195122241973877,-0.00390625,0.017578125,0.0,0.0017758847073870772,0.0,0.0017025008400108177,8.522042421588825e-05,0.001512289656167196
1623764915.433403,0.0,0.0,2.01,2.38,0.0,0.0,1.2195122241973877,-0.00390625,0.017578125,0.0,0.0017758847073870772,0.0,0.0017025008400108177,8.522042421588825e-05,0.001512289656167196
1623764915.433403,0.0,0.0,2.01,2.38,0.0,0.0,1.2195122241973877,-0.00390625,0.017578125,0.0,0.0017758847073870772,0.0,0.0016750385489306718,8.522042421588825e-05,0.0015284639522981577
1623764915.433403,0.0,0.0,2.0,2.37,0.0,0.0,1.2195122241973877,-0.00390625,0.017578125,0.0,0.0017758847073870772,0.0,0.0016750385489306718,8.522042421588825e-05,0.0015284639522981577
1623764915.433403,0.0,0.0,2.0,2.37,0.0,0.0,1.2195122241973877,-0.00390625,0.017578125,0.0,0.0017758847073870772,0.0,0.0016750385489306718,8.522042421588825e-05,0.0015284639522981577
1623764915.433403,0.0,0.0,2.0,2.37,0.0,0.0,1.2195122241973877,-0.00390625,0.017578125,0.0,0.0017455885434269694,0.0,0.0016750385489306718,8.43796888651659e-05,0.0015284639522981577
1623764915.4934032,0.0,0.0,2.0,2.37,0.0,0.0,1.2195122241973877,-0.00390625,0.017578125,0.0,0.0017455885434269694,0.0,0.0016474245183386504,8.43796888651659e-05,0.001541376653647584
1623764915.4934032,0.0,0.0,2.0,2.37,0.0,0.0,1.2195122241973877,-0.00390625,0.017578125,0.0,0.0017455885434269694,0.0,0.0016474245183386504,8.43796888651659e-05,0.001541376653647584
1623764915.4934032,0.0,0.0,2.0,2.37,0.0,0.0,1.2195122241973877,-0.00390625,0.017578125,0.0,0.0017455885434269694,0.0,0.0016474245183386504,8.43796888651659e-05,0.001541376653647584
1623764915.4934032,0.0,0.0,2.0,2.37,0.0,0.0,1.2195122241973877,-0.00390625,0.017578125,0.0,0.0017455885434269694,0.0,0.0016474245183386504,8.43796888651659e-05,0.001541376653647584
1623764915.4934032,0.0,0.0,2.0,2.37,0.0,0.0,1.1585365533828735,-0.0009765625,0.0009765625,0.0,0.001635513332600964,0.0,0.0016474245183386504,7.99063821506655e-05,0.001541376653647584
1623764915.5534031,0.0,0.0,2.0,2.37,0.0,0.0,1.1585365533828735,-0.0009765625,0.0009765625,0.0,0.001635513332600964,0.0,0.0015762924781579485,7.99063821506655e-05,0.0015479170700923577
1623764915.5534031,0.0,0.0,2.0,2.38,0.0,0.0,1.1585365533828735,-0.0009765625,0.0009765625,0.0,0.001635513332600964,0.0,0.0015762924781579485,7.99063821506655e-05,0.0015479170700923577
1623764915.5534031,0.0,0.0,2.0,2.38,0.0,0.0,1.1585365533828735,-0.0009765625,0.0009765625,0.0,0.001635513332600964,0.0,0.0015762924781579485,7.99063821506655e-05,0.0015479170700923577
1623764915.5534031,0.0,0.0,2.0,2.38,0.0,0.0,1.1585365533828735,-0.0009765625,0.0009765625,0.0,0.001635513332600964,0.0,0.0015762924781579485,7.99063821506655e-05,0.0015479170700923577
1623764915.5794032,0.0,0.0,2.0,2.38,0.0,0.0,1.1585365533828735,-0.0009765625,0.0009765625,0.0,0.0018860532488453449,0.0,0.0016681798881509602,0.00013613452206722874,0.0015437381157101832
1623764915.5794032,0.0,0.0,2.0,2.38,0.0,0.0,1.1585365533828735,-0.0009765625,0.0009765625,0.0,0.0018860532488453449,0.0,0.0016681798881509602,0.00013613452206722874,0.0015437381157101832
1623764915.5794032,0.0,0.0,2.0,2.38,0.0,0.0,1.1585365533828735,-0.0009765625,0.0009765625,0.0,0.0018860532488453449,0.0,0.0016681798881509602,0.00013613452206722874,0.0015437381157101832
1623764915.5794032,0.0,0.0,2.0,2.38,0.0,0.0,1.1585365533828735,-0.0009765625,0.0009765625,0.0,0.0018860532488453449,0.0,0.0016681798881509602,0.00013613452206722874,0.0015437381157101832
1623764915.5794032,0.0,0.0,2.0,2.38,0.0,0.0,1.1585365533828735,-0.0009765625,0.0009765625,0.0,0.0018860532488453449,0.0,0.0016681798881509602,0.00013613452206722874,0.0015437381157101832
1623764915.613403,0.0,0.0,2.0,2.38,0.0,0.0,1.2195122241973877,-0.00048828125,0.00244140625,0.0,0.001816901399736424,0.0,0.0016681798881509602,8.660084214393163e-05,0.0015437381157101832
1623764915.613403,0.0,0.0,2.0,2.38,0.0,0.0,1.2195122241973877,-0.00048828125,0.00244140625,0.0,0.001816901399736424,0.0,0.0016692669415154385,8.660084214393163e-05,0.0015188202414251424
1623764915.613403,0.0,0.0,2.0,2.38,0.0,0.0,1.2195122241973877,-0.00048828125,0.00244140625,0.0,0.001816901399736424,0.0,0.0016692669415154385,8.660084214393163e-05,0.0015188202414251424
1623764915.613403,0.0,0.0,2.0,2.37,0.0,0.0,1.2195122241973877,-0.00048828125,0.00244140625,0.0,0.001816901399736424,0.0,0.0016692669415154385,8.660084214393163e-05,0.0015188202414251424
1623764915.613403,0.0,0.0,2.0,2.37,0.0,0.0,1.2195122241973877,-0.00048828125,0.00244140625,0.0,0.001816901399736424,0.0,0.0016692669415154385,8.660084214393163e-05,0.0015188202414251424
1623764915.683403,0.0,0.0,2.0,2.37,0.0,0.0,1.2195122241973877,-0.00048828125,0.00244140625,0.0,0.0017421515447256734,0.0,0.0016573999123511015,0.00010171416558624233,0.001564376134323985
1623764915.683403,0.0,0.0,2.0,2.37,0.0,0.0,1.2195122241973877,-0.00048828125,0.00244140625,0.0,0.0017421515447256734,0.0,0.0016573999123511015,0.00010171416558624233,0.001564376134323985
1623764915.683403,0.0,0.0,2.0,2.37,0.0,0.0,1.2195122241973877,-0.00048828125,0.00244140625,0.0,0.0017421515447256734,0.0,0.0016573999123511015,0.00010171416558624233,0.001564376134323985
1623764915.683403,0.0,0.0,2.0,2.37,0.0,0.0,1.2195122241973877,-0.01123046875,0.01318359375,0.0,0.0017421515447256734,0.0,0.0016573999123511015,0.00010171416558624233,0.001564376134323985
1623764915.683403,0.0,0.0,2.0,2.37,0.0,0.0,1.2195122241973877,-0.01123046875,0.01318359375,0.0,0.0017421515447256734,0.0,0.0016573999123511015,0.00010171416558624233,0.001564376134323985
1623764915.733403,0.0,0.0,2.0,2.37,0.0,0.0,1.2195122241973877,-0.01123046875,0.01318359375,0.0,0.0016500459667519991,0.0,0.001596200602293884,8.063448432920058e-05,0.0015565176569387348
1623764915.733403,0.0,0.0,2.0,2.37,0.0,0.0,1.2195122241973877,-0.01123046875,0.01318359375,0.0,0.0016500459667519991,0.0,0.001596200602293884,8.063448432920058e-05,0.0015565176569387348
1623764915.733403,0.0,0.0,2.0,2.37,0.0,0.0,1.2195122241973877,-0.01123046875,0.01318359375,0.0,0.0016500459667519991,0.0,0.001596200602293884,8.063448432920058e-05,0.0015565176569387348
1623764915.733403,0.0,0.0,2.01,2.38,0.0,0.0,1.2195122241973877,-0.01123046875,0.01318359375,0.0,0.0016500459667519991,0.0,0.001596200602293884,8.063448432920058e-05,0.0015565176569387348
1623764915.733403,0.0,0.0,2.01,2.38,0.0,0.0,1.2195122241973877,-0.01123046875,0.01318359375,0.0,0.0016500459667519991,0.0,0.001596200602293884,8.063448432920058e-05,0.0015565176569387348
1623764915.7934031,0.0,0.0,2.01,2.38,0.0,0.0,1.2195122241973877,-0.01123046875,0.01318359375,0.0,0.0016940937049244682,0.0,0.0015793753376903508,8.192648314699161e-05,0.0015633485765294646
1623764915.7934031,0.0,0.0,2.01,2.38,0.0,0.0,1.2195122241973877,-0.01123046875,0.01318359375,0.0,0.0016940937049244682,0.0,0.0015793753376903508,8.192648314699161e-05,0.0015633485765294646
1623764915.7934031,0.0,0.0,2.01,2.38,0.0,0.0,1.2195122241973877,-0.01123046875,0.01318359375,0.0,0.0016940937049244682,0.0,0.0015793753376903508,8.192648314699161e-05,0.0015633485765294646
1623764915.7934031,0.0,0.0,2.01,2.38,0.0,0.0,1.3414634466171265,-0.00927734375,0.01708984375,0.0,0.0016940937049244682,0.0,0.0015793753376903508,8.192648314699161e-05,0.0015633485765294646
1623764915.7934031,0.0,0.0,2.01,2.38,0.0,0.0,1.3414634466171265,-0.00927734375,0.01708984375,0.0,0.0016940937049244682,0.0,0.0015793753376903508,8.192648314699161e-05,0.0015633485765294646
1623764915.853403,0.0,0.0,2.01,2.38,0.0,0.0,1.3414634466171265,-0.00927734375,0.01708984375,0.0,0.0015873760164492184,0.0,0.001514938433026811,7.756915322396869e-05,0.001564458052033562
1623764915.853403,0.0,0.0,2.01,2.38,0.0,0.0,1.3414634466171265,-0.00927734375,0.01708984375,0.0,0.0015873760164492184,0.0,0.001514938433026811,7.756915322396869e-05,0.001564458052033562
1623764915.853403,0.0,0.0,2.01,2.38,0.0,0.0,1.3414634466171265,-0.00927734375,0.01708984375,0.0,0.0015873760164492184,0.0,0.001514938433026811,7.756915322396869e-05,0.001564458052033562
1623764915.853403,0.0,0.0,2.01,2.38,0.0,0.0,1.3414634466171265,-0.00927734375,0.01708984375,0.0,0.0015873760164492184,0.0,0.001514938433026811,7.756915322396869e-05,0.001564458052033562
1623764915.853403,0.0,0.0,2.01,2.38,0.0,0.0,1.3414634466171265,-0.00927734375,0.01708984375,0.0,0.0015873760164492184,0.0,0.001514938433026811,7.756915322396869e-05,0.001564458052033562
1623764915.871403,0.0,0.0,2.01,2.38,0.0,0.0,1.3414634466171265,-0.00927734375,0.01708984375,0.0,0.0018446479469289062,0.0,0.0016090610376910393,0.00011833585979968038,0.001539707445287503
1623764915.871403,0.0,0.0,2.01,2.38,0.0,0.0,1.3414634466171265,-0.00927734375,0.01708984375,0.0,0.0018446479469289062,0.0,0.0016090610376910393,0.00011833585979968038,0.001539707445287503
1623764915.871403,0.0,0.0,2.01,2.38,0.0,0.0,1.3414634466171265,-0.00927734375,0.01708984375,0.0,0.0018446479469289062,0.0,0.0016090610376910393,0.00011833585979968038,0.001539707445287503
1623764915.871403,0.0,0.0,2.01,2.38,0.0,0.0,1.3414634466171265,-0.00927734375,0.01708984375,0.0,0.0018446479469289062,0.0,0.0016090610376910393,0.00011833585979968038,0.001539707445287503
1623764915.871403,0.0,0.0,2.01,2.38,0.0,0.0,1.1585365533828735,-0.00732421875,0.001953125,0.0,0.0018446479469289062,0.0,0.0016090610376910393,0.00011833585979968038,0.001539707445287503
1623764915.913403,0.0,0.0,2.01,2.38,0.0,0.0,1.1585365533828735,-0.00732421875,0.001953125,0.0,0.0017623218035629326,0.0,0.001612457206056734,8.41887878769699e-05,0.0015250658405687781
1623764915.913403,0.0,0.0,2.01,2.38,0.0,0.0,1.1585365533828735,-0.00732421875,0.001953125,0.0,0.0017623218035629326,0.0,0.001612457206056734,8.41887878769699e-05,0.0015250658405687781
1623764915.913403,0.0,0.0,2.01,2.38,0.0,0.0,1.1585365533828735,-0.00732421875,0.001953125,0.0,0.0017623218035629326,0.0,0.001612457206056734,8.41887878769699e-05,0.0015250658405687781
1623764915.913403,0.0,0.0,2.01,2.38,0.0,0.0,1.1585365533828735,-0.00732421875,0.001953125,0.0,0.0017623218035629326,0.0,0.001612457206056734,8.41887878769699e-05,0.0015250658405687781
1623764915.913403,0.0,0.0,2.01,2.38,0.0,0.0,1.1585365533828735,-0.00732421875,0.001953125,0.0,0.0017623218035629326,0.0,0.001612457206056734,8.41887878769699e-05,0.0015250658405687781
1623764915.975403,0.0,0.0,2.01,2.38,0.0,0.0,1.1585365533828735,-0.00732421875,0.001953125,0.0,0.0016482247707407288,0.0,0.0015785032249968612,8.353554444112309e-05,0.0015419046918320864
1623764915.975403,0.0,0.0,2.01,2.38,0.0,0.0,1.1585365533828735,-0.00732421875,0.001953125,0.0,0.0016482247707407288,0.0,0.0015785032249968612,8.353554444112309e-05,0.0015419046918320864
1623764915.975403,0.0,0.0,2.01,2.38,0.0,0.0,1.1585365533828735,-0.00732421875,0.001953125,0.0,0.0016482247707407288,0.0,0.0015785032249968612,8.353554444112309e-05,0.0015419046918320864
1623764915.975403,0.0,0.0,2.01,2.38,0.0,0.0,1.1585365533828735,-0.00732421875,0.001953125,0.0,0.0016482247707407288,0.0,0.0015785032249968612,8.353554444112309e-05,0.0015419046918320864
1623764915.975403,0.0,0.0,2.01,2.38,0.0,0.0,1.2804877758026123,-0.01123046875,0.0048828125,0.0,0.0016482247707407288,0.0,0.0015785032249968612,8.353554444112309e-05,0.0015419046918320864
1623764916.0334032,0.0,0.0,2.01,2.38,0.0,0.0,1.2804877758026123,-0.01123046875,0.0048828125,0.0,0.0015479208998364488,0.0,0.0015076214105245853,7.587873656938897e-05,0.0015432541658635434
1623764916.0334032,0.0,0.0,2.01,2.38,0.0,0.0,1.2804877758026123,-0.01123046875,0.0048828125,0.0,0.0015479208998364488,0.0,0.0015076214105245853,7.587873656938897e-05,0.0015432541658635434
1623764916.0334032,0.0,0.0,2.03,2.38,0.0,0.0,1.2804877758026123,-0.01123046875,0.0048828125,0.0,0.0015479208998364488,0.0,0.0015076214105245853,7.587873656938897e-05,0.0015432541658635434
1623764916.0334032,0.0,0.0,2.03,2.38,0.0,0.0,1.2804877758026123,-0.01123046875,0.0048828125,0.0,0.0015479208998364488,0.0,0.0015076214105245853,7.587873656938897e-05,0.0015432541658635434
1623764916.0334032,0.0,0.0,2.03,2.38,0.0,0.0,1.2804877758026123,-0.01123046875,0.0048828125,0.0,0.0015479208998364488,0.0,0.0015076214105245853,7.587873656938897e-05,0.0015432541658635434
1623764916.093403,0.0,0.0,2.03,2.38,0.0,0.0,1.2804877758026123,-0.01123046875,0.0048828125,0.0,0.0016712473102629632,0.0,0.0015171202530138703,7.92608027548839e-05,0.0015479775918526171
1623764916.093403,0.0,0.0,2.03,2.38,0.0,0.0,1.2804877758026123,-0.01123046875,0.0048828125,0.0,0.0016712473102629632,0.0,0.0015171202530138703,7.92608027548839e-05,0.0015479775918526171
1623764916.093403,0.0,0.0,2.03,2.38,0.0,0.0,1.2804877758026123,-0.01123046875,0.0048828125,0.0,0.0016712473102629632,0.0,0.0015171202530138703,7.92608027548839e-05,0.0015479775918526171
1623764916.093403,0.0,0.0,2.03,2.38,0.0,0.0,1.2804877758026123,-0.01123046875,0.0048828125,0.0,0.0016712473102629632,0.0,0.0015171202530138703,7.92608027548839e-05,0.0015479775918526171
1623764916.093403,0.0,0.0,2.03,2.38,0.0,0.0,1.2804877758026123,-0.01123046875,0.0048828125,0.0,0.0016712473102629632,0.0,0.0015171202530138703,7.92608027548839e-05,0.0015479775918526171
1623764916.153403,0.0,0.0,2.03,2.38,0.0,0.0,1.2195122241973877,0.00048828125,0.0068359375,0.0,0.001565791019565715,0.0,0.0014655174001179608,7.583013660705561e-05,0.0015474908207647165
1623764916.153403,0.0,0.0,2.03,2.38,0.0,0.0,1.2195122241973877,0.00048828125,0.0068359375,0.0,0.001565791019565715,0.0,0.0014655174001179608,7.583013660705561e-05,0.0015474908207647165
1623764916.153403,0.0,0.0,2.03,2.38,0.0,0.0,1.2195122241973877,0.00048828125,0.0068359375,0.0,0.001565791019565715,0.0,0.0014655174001179608,7.583013660705561e-05,0.0015474908207647165
1623764916.153403,0.0,0.0,2.04,2.39,0.0,0.0,1.2195122241973877,0.00048828125,0.0068359375,0.0,0.001565791019565715,0.0,0.0014655174001179608,7.583013660705561e-05,0.0015474908207647165
1623764916.153403,0.0,0.0,2.04,2.39,0.0,0.0,1.2195122241973877,0.00048828125,0.0068359375,0.0,0.001565791019565715,0.0,0.0014655174001179608,7.583013660705561e-05,0.0015474908207647165
1623764916.183403,0.0,0.0,2.04,2.39,0.0,0.0,1.2195122241973877,0.00048828125,0.0068359375,0.0,0.0017782045510366313,0.0,0.001560299244989009,0.0001353280362094525,0.001548754474985256
1623764916.183403,0.0,0.0,2.04,2.39,0.0,0.0,1.2195122241973877,0.00048828125,0.0068359375,0.0,0.0017782045510366313,0.0,0.001560299244989009,0.0001353280362094525,0.001548754474985256
1623764916.183403,0.0,0.0,2.04,2.39,0.0,0.0,1.2195122241973877,0.00048828125,0.0068359375,0.0,0.0017782045510366313,0.0,0.001560299244989009,0.0001353280362094525,0.001548754474985256
1623764916.183403,0.0,0.0,2.04,2.39,0.0,0.0,1.3414634466171265,-0.01220703125,0.0078125,0.0,0.0017782045510366313,0.0,0.001560299244989009,0.0001353280362094525,0.001548754474985256
1623764916.183403,0.0,0.0,2.04,2.39,0.0,0.0,1.3414634466171265,-0.01220703125,0.0078125,0.0,0.0017782045510366313,0.0,0.001560299244989009,0.0001353280362094525,0.001548754474985256
1623764916.213403,0.0,0.0,2.04,2.39,0.0,0.0,1.3414634466171265,-0.01220703125,0.0078125,0.0,0.0017200833740765476,0.0,0.0015639121601109566,8.178591104703644e-05,0.0015135755370202268
1623764916.213403,0.0,0.0,2.04,2.39,0.0,0.0,1.3414634466171265,-0.01220703125,0.0078125,0.0,0.0017200833740765476,0.0,0.0015639121601109566,8.178591104703644e-05,0.0015135755370202268
1623764916.213403,0.0,0.0,2.05,2.39,0.0,0.0,1.3414634466171265,-0.01220703125,0.0078125,0.0,0.0017200833740765476,0.0,0.0015639121601109566,8.178591104703644e-05,0.0015135755370202268
1623764916.213403,0.0,0.0,2.05,2.39,0.0,0.0,1.3414634466171265,-0.01220703125,0.0078125,0.0,0.0017200833740765476,0.0,0.0015639121601109566,8.178591104703644e-05,0.0015135755370202268
1623764916.213403,0.0,0.0,2.05,2.39,0.0,0.0,1.3414634466171265,-0.01220703125,0.0078125,0.0,0.0017200833740765476,0.0,0.0015639121601109566,8.178591104703644e-05,0.0015135755370202268
1623764916.2734032,0.0,0.0,2.05,2.39,0.0,0.0,1.3414634466171265,-0.01220703125,0.0078125,0.0,0.0016561699191465504,0.0,0.0015554606092443367,7.980743634971052e-05,0.0015230939262264912
1623764916.2734032,0.0,0.0,2.05,2.39,0.0,0.0,1.3414634466171265,-0.01220703125,0.0078125,0.0,0.0016561699191465504,0.0,0.0015554606092443367,7.980743634971052e-05,0.0015230939262264912
1623764916.2734032,0.0,0.0,2.05,2.39,0.0,0.0,1.2195122241973877,-0.00732421875,0.0009765625,0.0,0.0016561699191465504,0.0,0.0015554606092443367,7.980743634971052e-05,0.0015230939262264912
1623764916.2734032,0.0,0.0,2.05,2.39,0.0,0.0,1.2195122241973877,-0.00732421875,0.0009765625,0.0,0.0016561699191465504,0.0,0.0015554606092443367,7.980743634971052e-05,0.0015230939262264912
1623764916.2734032,0.0,0.0,2.05,2.39,0.0,0.0,1.2195122241973877,-0.00732421875,0.0009765625,0.0,0.0016561699191465504,0.0,0.0015554606092443367,7.980743634971052e-05,0.0015230939262264912
1623764916.333403,0.0,0.0,2.05,2.39,0.0,0.0,1.2195122241973877,-0.00732421875,0.0009765625,0.0,0.0015523738021883911,0.0,0.001497485393217507,7.572687597616023e-05,0.0015277714828252085
1623764916.333403,0.0,0.0,2.05,2.39,0.0,0.0,1.2195122241973877,-0.00732421875,0.0009765625,0.0,0.0015523738021883911,0.0,0.001497485393217507,7.572687597616023e-05,0.0015277714828252085
1623764916.333403,0.0,0.0,2.05,2.41,0.0,0.0,1.2195122241973877,-0.00732421875,0.0009765625,0.0,0.0015523738021883911,0.0,0.001497485393217507,7.572687597616023e-05,0.0015277714828252085
1623764916.333403,0.0,0.0,2.05,2.41,0.0,0.0,1.2195122241973877,-0.00732421875,0.0009765625,0.0,0.0015523738021883911,0.0,0.001497485393217507,7.572687597616023e-05,0.0015277714828252085
1623764916.333403,0.0,0.0,2.05,2.41,0.0,0.0,1.2195122241973877,-0.00732421875,0.0009765625,0.0,0.0015523738021883911,0.0,0.001497485393217507,7.572687597616023e-05,0.0015277714828252085
1623764916.393403,0.0,0.0,2.05,2.41,0.0,0.0,1.2195122241973877,-0.00732421875,0.0009765625,0.0,0.0016092130861091695,0.0,0.0014858997282803492,7.73531502410234e-05,0.0015311469823289599
1623764916.393403,0.0,0.0,2.05,2.41,0.0,0.0,1.2195122241973877,-0.00732421875,0.0009765625,0.0,0.0016092130861091695,0.0,0.0014858997282803492,7.73531502410234e-05,0.0015311469823289599
1623764916.393403,0.0,0.0,2.05,2.41,0.0,0.0,1.2195122241973877,-0.00732421875,0.0009765625,0.0,0.0016092130861091695,0.0,0.0014858997282803492,7.73531502410234e-05,0.0015311469823289599
1623764916.393403,0.0,0.0,2.05,2.41,0.0,0.0,1.2195122241973877,-0.00732421875,0.0009765625,0.0,0.0016092130861091695,0.0,0.0014858997282803492,7.73531502410234e-05,0.0015311469823289599
1623764916.393403,0.0,0.0,2.05,2.41,0.0,0.0,1.1585365533828735,-0.001953125,0.0029296875,0.0,0.0016092130861091695,0.0,0.0014858997282803492,7.73531502410234e-05,0.0015311469823289599
1623764916.453403,0.0,0.0,2.05,2.41,0.0,0.0,1.1585365533828735,-0.001953125,0.0029296875,0.0,0.0015076401582371753,0.0,0.0014259874018744,7.346942753098212e-05,0.001529205585417293
1623764916.453403,0.0,0.0,2.05,2.41,0.0,0.0,1.1585365533828735,-0.001953125,0.0029296875,0.0,0.0015076401582371753,0.0,0.0014259874018744,7.346942753098212e-05,0.001529205585417293
1623764916.453403,0.0,0.0,2.05,2.4,0.0,0.0,1.1585365533828735,-0.001953125,0.0029296875,0.0,0.0015076401582371753,0.0,0.0014259874018744,7.346942753098212e-05,0.001529205585417293
1623764916.453403,0.0,0.0,2.05,2.4,0.0,0.0,1.1585365533828735,-0.001953125,0.0029296875,0.0,0.0015076401582371753,0.0,0.0014259874018744,7.346942753098212e-05,0.001529205585417293
1623764916.453403,0.0,0.0,2.05,2.4,0.0,0.0,1.1585365533828735,-0.001953125,0.0029296875,0.0,0.0015076401582371753,0.0,0.0014259874018744,7.346942753098212e-05,0.001529205585417293
1623764916.475403,0.0,0.0,2.05,2.4,0.0,0.0,1.1585365533828735,-0.001953125,0.0029296875,0.0,0.0015559040977518122,0.0,0.0014438535470389171,0.0001098051639571248,0.001507457667760406
1623764916.475403,0.0,0.0,2.05,2.4,0.0,0.0,1.1585365533828735,-0.001953125,0.0029296875,0.0,0.0015559040977518122,0.0,0.0014438535470389171,0.0001098051639571248,0.001507457667760406
1623764916.475403,0.0,0.0,2.05,2.4,0.0,0.0,1.1585365533828735,-0.001953125,0.0029296875,0.0,0.0015559040977518122,0.0,0.0014438535470389171,0.0001098051639571248,0.001507457667760406
1623764916.475403,0.0,0.0,2.05,2.4,0.0,0.0,1.1585365533828735,-0.001953125,0.0029296875,0.0,0.0015559040977518122,0.0,0.0014438535470389171,0.0001098051639571248,0.001507457667760406
1623764916.475403,0.0,0.0,2.05,2.4,0.0,0.0,1.2804877758026123,0.00048828125,0.01611328125,0.0,0.0014924845795135063,0.0,0.0014438535470389171,7.287137903833039e-05,0.001507457667760406
1623764916.5134032,0.0,0.0,2.05,2.4,0.0,0.0,1.2804877758026123,0.00048828125,0.01611328125,0.0,0.0014924845795135063,0.0,0.0014116118376028245,7.287137903833039e-05,0.0014796850043167016
1623764916.5134032,0.0,0.0,2.05,2.4,0.0,0.0,1.2804877758026123,0.00048828125,0.01611328125,0.0,0.0014924845795135063,0.0,0.0014116118376028245,7.287137903833039e-05,0.0014796850043167016
1623764916.5134032,0.0,0.0,2.05,2.4,0.0,0.0,1.2804877758026123,0.00048828125,0.01611328125,0.0,0.0014924845795135063,0.0,0.0014116118376028245,7.287137903833039e-05,0.0014796850043167016
1623764916.5134032,0.0,0.0,2.03,2.4,0.0,0.0,1.2804877758026123,0.00048828125,0.01611328125,0.0,0.0014924845795135063,0.0,0.0014116118376028245,7.287137903833039e-05,0.0014796850043167016
1623764916.5134032,0.0,0.0,2.03,2.4,0.0,0.0,1.2804877758026123,0.00048828125,0.01611328125,0.0,0.0014924845795135063,0.0,0.0014116118376028245,7.287137903833039e-05,0.0014796850043167016
1623764916.5794032,0.0,0.0,2.03,2.4,0.0,0.0,1.2804877758026123,0.00048828125,0.01611328125,0.0,0.00176065011690922,0.0,0.0015189573366896623,9.034920450033451e-05,0.0015069894128110527
1623764916.5794032,0.0,0.0,2.03,2.4,0.0,0.0,1.2804877758026123,0.00048828125,0.01611328125,0.0,0.00176065011690922,0.0,0.0015189573366896623,9.034920450033451e-05,0.0015069894128110527
1623764916.5794032,0.0,0.0,2.03,2.4,0.0,0.0,1.2804877758026123,0.00048828125,0.01611328125,0.0,0.00176065011690922,0.0,0.0015189573366896623,9.034920450033451e-05,0.0015069894128110527
1623764916.5794032,0.0,0.0,2.03,2.4,0.0,0.0,1.2804877758026123,0.00048828125,0.01611328125,0.0,0.00176065011690922,0.0,0.0015189573366896623,9.034920450033451e-05,0.0015069894128110527
1623764916.5794032,0.0,0.0,2.03,2.4,0.0,0.0,1.2804877758026123,0.00048828125,0.01611328125,0.0,0.0016606487669638776,0.0,0.0015189573366896623,7.880673374659913e-05,0.0015069894128110527
1623764916.633403,0.0,0.0,2.03,2.4,0.0,0.0,1.2195122241973877,-0.00048828125,0.00830078125,0.0,0.0016606487669638776,0.0,0.0015125578416181355,7.880673374659913e-05,0.0015051022738863295
1623764916.633403,0.0,0.0,2.03,2.4,0.0,0.0,1.2195122241973877,-0.00048828125,0.00830078125,0.0,0.0016606487669638776,0.0,0.0015125578416181355,7.880673374659913e-05,0.0015051022738863295
1623764916.633403,0.0,0.0,2.03,2.4,0.0,0.0,1.2195122241973877,-0.00048828125,0.00830078125,0.0,0.0016606487669638776,0.0,0.0015125578416181355,7.880673374659913e-05,0.0015051022738863295
1623764916.633403,0.0,0.0,2.03,2.4,0.0,0.0,1.2195122241973877,-0.00048828125,0.00830078125,0.0,0.0016606487669638776,0.0,0.0015125578416181355,7.880673374659913e-05,0.0015051022738863295
1623764916.633403,0.0,0.0,2.03,2.4,0.0,0.0,1.2195122241973877,-0.00048828125,0.00830078125,0.0,0.0016871226214792794,0.0,0.0015125578416181355,8.00954297975223e-05,0.0015051022738863295
1623764916.693403,0.0,0.0,2.03,2.4,0.0,0.0,1.2195122241973877,-0.00048828125,0.00830078125,0.0,0.0016871226214792794,0.0,0.0015125578416181355,8.00954297975223e-05,0.0015051022738863295
1623764916.693403,0.0,0.0,2.03,2.4,0.0,0.0,1.2195122241973877,-0.00048828125,0.00830078125,0.0,0.0016871226214792794,0.0,0.0015293593285833982,8.00954297975223e-05,0.0015123146677048303
1623764916.693403,0.0,0.0,2.03,2.4,0.0,0.0,1.2804877758026123,-0.00244140625,0.01025390625,0.0,0.0016871226214792794,0.0,0.0015293593285833982,8.00954297975223e-05,0.0015123146677048303
1623764916.693403,0.0,0.0,2.03,2.4,0.0,0.0,1.2804877758026123,-0.00244140625,0.01025390625,0.0,0.0016871226214792794,0.0,0.0015293593285833982,8.00954297975223e-05,0.0015123146677048303
1623764916.693403,0.0,0.0,2.03,2.4,0.0,0.0,1.2804877758026123,-0.00244140625,0.01025390625,0.0,0.0016871226214792794,0.0,0.0015293593285833982,8.00954297975223e-05,0.0015123146677048303
1623764916.693403,0.0,0.0,2.03,2.4,0.0,0.0,1.2804877758026123,-0.00244140625,0.01025390625,0.0,0.0016871226214792794,0.0,0.0015293593285833982,8.00954297975223e-05,0.0015123146677048303
1623764916.693403,0.0,0.0,2.01,2.39,0.0,0.0,1.2804877758026123,-0.00244140625,0.01025390625,0.0,0.0016871226214792794,0.0,0.0015402870464439266,8.00954297975223e-05,0.0014372340787048253
1623764916.693403,0.0,0.0,2.01,2.39,0.0,0.0,1.2804877758026123,-0.00244140625,0.01025390625,0.0,0.0016871226214792794,0.0,0.0015402870464439266,8.00954297975223e-05,0.0014372340787048253
1623764916.693403,0.0,0.0,2.01,2.39,0.0,0.0,1.2804877758026123,-0.00244140625,0.01025390625,0.0,0.0016871226214792794,0.0,0.0015402870464439266,8.00954297975223e-05,0.0014372340787048253
1623764916.693403,0.0,0.0,2.01,2.39,0.0,0.0,1.2804877758026123,-0.00244140625,0.01025390625,0.0,0.0015405666406637275,0.0,0.0015402870464439266,9.765546791222344e-05,0.0014372340787048253
1623764916.7674031,0.0,0.0,2.01,2.39,0.0,0.0,1.2804877758026123,-0.00244140625,0.01025390625,0.0,0.0015405666406637275,0.0,0.0015083963388954759,9.765546791222344e-05,0.0014880234664510408
1623764916.7674031,0.0,0.0,2.01,2.39,0.0,0.0,1.2804877758026123,-0.00244140625,0.01025390625,0.0,0.0015405666406637275,0.0,0.0015083963388954759,9.765546791222344e-05,0.0014880234664510408
1623764916.7674031,0.0,0.0,2.01,2.39,0.0,0.0,1.2804877758026123,-0.00244140625,0.01025390625,0.0,0.0015405666406637275,0.0,0.0015083963388954759,9.765546791222344e-05,0.0014880234664510408
1623764916.7674031,0.0,0.0,2.01,2.39,0.0,0.0,1.2804877758026123,0.00244140625,-0.001953125,0.0,0.0015405666406637275,0.0,0.0015083963388954759,9.765546791222344e-05,0.0014880234664510408
1623764916.8134031,0.0,0.0,2.01,2.39,0.0,0.0,1.2804877758026123,0.00244140625,-0.001953125,0.0,0.0014657749546097753,0.0,0.0014469354491489584,7.226270963479868e-05,0.0014737303993274378
1623764916.8134031,0.0,0.0,2.01,2.39,0.0,0.0,1.2804877758026123,0.00244140625,-0.001953125,0.0,0.0014657749546097753,0.0,0.0014469354491489584,7.226270963479868e-05,0.0014737303993274378
1623764916.8134031,0.0,0.0,2.01,2.39,0.0,0.0,1.2804877758026123,0.00244140625,-0.001953125,0.0,0.0014657749546097753,0.0,0.0014469354491489584,7.226270963479868e-05,0.0014737303993274378
1623764916.8134031,0.0,0.0,2.02,2.4,0.0,0.0,1.2804877758026123,0.00244140625,-0.001953125,0.0,0.0014657749546097753,0.0,0.0014469354491489584,7.226270963479868e-05,0.0014737303993274378
1623764916.8134031,0.0,0.0,2.02,2.4,0.0,0.0,1.2804877758026123,0.00244140625,-0.001953125,0.0,0.0014657749546097753,0.0,0.0014469354491489584,7.226270963479868e-05,0.0014737303993274378
1623764916.873403,0.0,0.0,2.02,2.4,0.0,0.0,1.2804877758026123,0.00244140625,-0.001953125,0.0,0.0016869705868212473,0.0,0.0015041725594971498,7.74111243259548e-05,0.0014838012048679447
1623764916.873403,0.0,0.0,2.02,2.4,0.0,0.0,1.2804877758026123,0.00244140625,-0.001953125,0.0,0.0016869705868212473,0.0,0.0015041725594971498,7.74111243259548e-05,0.0014838012048679447
1623764916.873403,0.0,0.0,2.02,2.4,0.0,0.0,1.2804877758026123,0.00244140625,-0.001953125,0.0,0.0016869705868212473,0.0,0.0015041725594971498,7.74111243259548e-05,0.0014838012048679447
1623764916.873403,0.0,0.0,2.02,2.4,0.0,0.0,1.2804877758026123,0.00244140625,-0.001953125,0.0,0.0016869705868212473,0.0,0.0015041725594971498,7.74111243259548e-05,0.0014838012048679447
1623764916.873403,0.0,0.0,2.02,2.4,0.0,0.0,1.3414634466171265,-0.0048828125,0.02001953125,0.0,0.0016869705868212473,0.0,0.0015041725594971498,7.74111243259548e-05,0.0014838012048679447
1623764916.933403,0.0,0.0,2.02,2.4,0.0,0.0,1.3414634466171265,-0.0048828125,0.02001953125,0.0,0.0015811591478098505,0.0,0.0014752757727760895,7.543230713535456e-05,0.001490537824908712
1623764916.933403,0.0,0.0,2.02,2.4,0.0,0.0,1.3414634466171265,-0.0048828125,0.02001953125,0.0,0.0015811591478098505,0.0,0.0014752757727760895,7.543230713535456e-05,0.001490537824908712
1623764916.933403,0.0,0.0,2.02,2.4,0.0,0.0,1.3414634466171265,-0.0048828125,0.02001953125,0.0,0.0015811591478098505,0.0,0.0014752757727760895,7.543230713535456e-05,0.001490537824908712
1623764916.933403,0.0,0.0,2.02,2.4,0.0,0.0,1.3414634466171265,-0.0048828125,0.02001953125,0.0,0.0015811591478098505,0.0,0.0014752757727760895,7.543230713535456e-05,0.001490537824908712
1623764916.933403,0.0,0.0,2.02,2.39,0.0,0.0,1.3414634466171265,-0.0048828125,0.02001953125,0.0,0.0015811591478098505,0.0,0.0014752757727760895,7.543230713535456e-05,0.001490537824908712
1623764916.9934032,0.0,0.0,2.02,2.39,0.0,0.0,1.3414634466171265,-0.0048828125,0.02001953125,0.0,0.0016899398028560112,0.0,0.0015083293838983965,7.966807075753903e-05,0.0014986737562110528
1623764916.9934032,0.0,0.0,2.02,2.39,0.0,0.0,1.3414634466171265,-0.0048828125,0.02001953125,0.0,0.0016899398028560112,0.0,0.0015083293838983965,7.966807075753903e-05,0.0014986737562110528
1623764916.9934032,0.0,0.0,2.02,2.39,0.0,0.0,1.3414634466171265,-0.0048828125,0.02001953125,0.0,0.0016899398028560112,0.0,0.0015083293838983965,7.966807075753903e-05,0.0014986737562110528
1623764916.9934032,0.0,0.0,2.02,2.39,0.0,0.0,1.3414634466171265,-0.0048828125,0.02001953125,0.0,0.0016899398028560112,0.0,0.0015083293838983965,7.966807075753903e-05,0.0014986737562110528
1623764916.9934032,0.0,0.0,2.02,2.39,0.0,0.0,1.2195122241973877,-0.00146484375,0.005859375,0.0,0.0016899398028560112,0.0,0.0015083293838983965,7.966807075753903e-05,0.0014986737562110528
1623764917.0534031,0.0,0.0,2.02,2.39,0.0,0.0,1.2195122241973877,-0.00146484375,0.005859375,0.0,0.0015832740319586176,0.0,0.0015083293838983965,7.646801056640418e-05,0.0014986737562110528
1623764917.0534031,0.0,0.0,2.02,2.39,0.0,0.0,1.2195122241973877,-0.00146484375,0.005859375,0.0,0.0015832740319586176,0.0,0.0015083293838983965,7.646801056640418e-05,0.0014986737562110528
1623764917.0534031,0.0,0.0,2.04,2.39,0.0,0.0,1.2195122241973877,-0.00146484375,0.005859375,0.0,0.0015832740319586176,0.0,0.0015083293838983965,7.646801056640418e-05,0.0014986737562110528
1623764917.0534031,0.0,0.0,2.04,2.39,0.0,0.0,1.2195122241973877,-0.00146484375,0.005859375,0.0,0.0015832740319586176,0.0,0.0015083293838983965,7.646801056640418e-05,0.0014986737562110528
1623764917.0534031,0.0,0.0,2.04,2.39,0.0,0.0,1.2195122241973877,-0.00146484375,0.005859375,0.0,0.0015832740319586176,0.0,0.0014678445776465225,7.646801056640418e-05,0.0015018708444183545
1623764917.0794032,0.0,0.0,2.04,2.39,0.0,0.0,1.2195122241973877,-0.00146484375,0.005859375,0.0,0.0017549770443591407,0.0,0.0014678445776465225,0.00012740420076406506,0.0015018708444183545
1623764917.0794032,0.0,0.0,2.04,2.39,0.0,0.0,1.2195122241973877,-0.00146484375,0.005859375,0.0,0.0017549770443591407,0.0,0.0014678445776465225,0.00012740420076406506,0.0015018708444183545
1623764917.0794032,0.0,0.0,2.04,2.39,0.0,0.0,1.2195122241973877,-0.00146484375,0.005859375,0.0,0.0017549770443591407,0.0,0.0014678445776465225,0.00012740420076406506,0.0015018708444183545
1623764917.0794032,0.0,0.0,2.04,2.39,0.0,0.0,1.2195122241973877,-0.00146484375,0.005859375,0.0,0.0017549770443591407,0.0,0.0014678445776465225,0.00012740420076406506,0.0015018708444183545
1623764917.0794032,0.0,0.0,2.04,2.39,0.0,0.0,1.2195122241973877,-0.00146484375,0.005859375,0.0,0.0017549770443591407,0.0,0.0015505438504140167,0.00012740420076406506,0.0014959219525975916
1623764917.113403,0.0,0.0,2.04,2.39,0.0,0.0,1.2195122241973877,0.001953125,0.0087890625,0.0,0.0016905375579389166,0.0,0.0015505438504140167,8.089782104784203e-05,0.0014959219525975916
1623764917.113403,0.0,0.0,2.04,2.39,0.0,0.0,1.2195122241973877,0.001953125,0.0087890625,0.0,0.0016905375579389166,0.0,0.0015505438504140167,8.089782104784203e-05,0.0014959219525975916
1623764917.113403,0.0,0.0,2.04,2.39,0.0,0.0,1.2195122241973877,0.001953125,0.0087890625,0.0,0.0016905375579389166,0.0,0.0015505438504140167,8.089782104784203e-05,0.0014959219525975916
1623764917.113403,0.0,0.0,2.05,2.4,0.0,0.0,1.2195122241973877,0.001953125,0.0087890625,0.0,0.0016905375579389166,0.0,0.0015488319246278837,8.089782104784203e-05,0.001469416739928947
1623764917.113403,0.0,0.0,2.05,2.4,0.0,0.0,1.2195122241973877,0.001953125,0.0087890625,0.0,0.0016905375579389166,0.0,0.0015488319246278837,8.089782104784203e-05,0.001469416739928947
1623764917.183403,0.0,0.0,2.05,2.4,0.0,0.0,1.2195122241973877,0.001953125,0.0087890625,0.0,0.001669501807233659,0.0,0.0015488319246278837,9.670049046825435e-05,0.001469416739928947
1623764917.183403,0.0,0.0,2.05,2.4,0.0,0.0,1.2195122241973877,0.001953125,0.0087890625,0.0,0.001669501807233659,0.0,0.0015488319246278837,9.670049046825435e-05,0.001469416739928947
1623764917.183403,0.0,0.0,2.05,2.4,0.0,0.0,1.2195122241973877,0.001953125,0.0087890625,0.0,0.001669501807233659,0.0,0.0015488319246278837,9.670049046825435e-05,0.001469416739928947
1623764917.183403,0.0,0.0,2.05,2.4,0.0,0.0,1.2195122241973877,-0.00244140625,-0.00048828125,0.0,0.001669501807233659,0.0,0.0015488319246278837,9.670049046825435e-05,0.001469416739928947
1623764917.183403,0.0,0.0,2.05,2.4,0.0,0.0,1.2195122241973877,-0.00244140625,-0.00048828125,0.0,0.001669501807233659,0.0,0.0015588571530721555,9.670049046825435e-05,0.0015103453762406226
1623764917.233403,0.0,0.0,2.05,2.4,0.0,0.0,1.2195122241973877,-0.00244140625,-0.00048828125,0.0,0.0015812297625019019,0.0,0.0015588571530721555,7.6932938961422e-05,0.0015103453762406226
1623764917.233403,0.0,0.0,2.05,2.4,0.0,0.0,1.2195122241973877,-0.00244140625,-0.00048828125,0.0,0.0015812297625019019,0.0,0.0015588571530721555,7.6932938961422e-05,0.0015103453762406226
1623764917.233403,0.0,0.0,2.05,2.39,0.0,0.0,1.2195122241973877,-0.00244140625,-0.00048828125,0.0,0.0015812297625019019,0.0,0.0015588571530721555,7.6932938961422e-05,0.0015103453762406226
1623764917.233403,0.0,0.0,2.05,2.39,0.0,0.0,1.2195122241973877,-0.00244140625,-0.00048828125,0.0,0.0015812297625019019,0.0,0.0015588571530721555,7.6932938961422e-05,0.0015103453762406226
1623764917.233403,0.0,0.0,2.05,2.39,0.0,0.0,1.2195122241973877,-0.00244140625,-0.00048828125,0.0,0.0015812297625019019,0.0,0.0015097786535651762,7.6932938961422e-05,0.0015012759432622676
1623764917.2934031,0.0,0.0,2.05,2.39,0.0,0.0,1.2195122241973877,-0.00244140625,-0.00048828125,0.0,0.0015604373224005806,0.0,0.0015097786535651762,7.606369644374175e-05,0.0015012759432622676
1623764917.2934031,0.0,0.0,2.05,2.39,0.0,0.0,1.2195122241973877,-0.00244140625,-0.00048828125,0.0,0.0015604373224005806,0.0,0.0015097786535651762,7.606369644374175e-05,0.0015012759432622676
1623764917.2934031,0.0,0.0,2.05,2.39,0.0,0.0,1.2195122241973877,-0.00244140625,-0.00048828125,0.0,0.0015604373224005806,0.0,0.0015097786535651762,7.606369644374175e-05,0.0015012759432622676
1623764917.2934031,0.0,0.0,2.05,2.39,0.0,0.0,1.2804877758026123,-0.00244140625,0.0087890625,0.0,0.0015604373224005806,0.0,0.001473950927381308,7.606369644374175e-05,0.0015045203732689761
1623764917.2934031,0.0,0.0,2.05,2.39,0.0,0.0,1.2804877758026123,-0.00244140625,0.0087890625,0.0,0.0015604373224005806,0.0,0.001473950927381308,7.606369644374175e-05,0.0015045203732689761
1623764917.353403,0.0,0.0,2.05,2.39,0.0,0.0,1.2804877758026123,-0.00244140625,0.0087890625,0.0,0.001462112788078078,0.0,0.001473950927381308,7.171142993702627e-05,0.0015045203732689761
1623764917.353403,0.0,0.0,2.05,2.39,0.0,0.0,1.2804877758026123,-0.00244140625,0.0087890625,0.0,0.001462112788078078,0.0,0.001473950927381308,7.171142993702627e-05,0.0015045203732689761
1623764917.353403,0.0,0.0,2.05,2.39,0.0,0.0,1.2804877758026123,-0.00244140625,0.0087890625,0.0,0.001462112788078078,0.0,0.001473950927381308,7.171142993702627e-05,0.0015045203732689761
1623764917.353403,0.0,0.0,2.05,2.4,0.0,0.0,1.2804877758026123,-0.00244140625,0.0087890625,0.0,0.001462112788078078,0.0,0.001473950927381308,7.171142993702627e-05,0.0015045203732689761
1623764917.353403,0.0,0.0,2.05,2.4,0.0,0.0,1.2804877758026123,-0.00244140625,0.0087890625,0.0,0.001667171711352002,0.0,0.0014044918712878926,0.0001078485976763335,0.0015021208012357856
1623764917.371403,0.0,0.0,2.05,2.4,0.0,0.0,1.2804877758026123,-0.00244140625,0.0087890625,0.0,0.001667171711352002,0.0,0.0014044918712878926,0.0001078485976763335,0.0015021208012357856
1623764917.371403,0.0,0.0,2.05,2.4,0.0,0.0,1.2804877758026123,-0.00244140625,0.0087890625,0.0,0.001667171711352002,0.0,0.0014044918712878926,0.0001078485976763335,0.0015021208012357856
1623764917.371403,0.0,0.0,2.05,2.4,0.0,0.0,1.2804877758026123,-0.00244140625,0.0087890625,0.0,0.001667171711352002,0.0,0.0014044918712878926,0.0001078485976763335,0.0015021208012357856
1623764917.371403,0.0,0.0,2.05,2.4,0.0,0.0,1.2804877758026123,-0.00244140625,0.0087890625,0.0,0.001667171711352002,0.0,0.0014737603864725232,0.0001078485976763335,0.0014757122597482471
1623764917.371403,0.0,0.0,2.05,2.4,0.0,0.0,1.2804877758026123,0.0048828125,0.0078125,0.0,0.001667171711352002,0.0,0.0014737603864725232,0.0001078485976763335,0.0014757122597482471
1623764917.417291,0.0,0.0,2.05,2.4,0.0,0.0,1.2804877758026123,0.0048828125,0.0078125,0.0,0.0015859996420991014,0.0,0.0014737603864725232,7.747032097238347e-05,0.0014757122597482471
1623764917.417291,0.0,0.0,2.05,2.4,0.0,0.0,1.2804877758026123,0.0048828125,0.0078125,0.0,0.0015859996420991014,0.0,0.0014737603864725232,7.747032097238347e-05,0.0014757122597482471
1623764917.417291,0.0,0.0,2.03,2.4,0.0,0.0,1.2804877758026123,0.0048828125,0.0078125,0.0,0.0015859996420991014,0.0,0.0014737603864725232,7.747032097238347e-05,0.0014757122597482471
1623764917.417291,0.0,0.0,2.03,2.4,0.0,0.0,1.2804877758026123,0.0048828125,0.0078125,0.0,0.0015859996420991014,0.0,0.0014648064438480897,7.747032097238347e-05,0.0014640663151731827
1623764917.417291,0.0,0.0,2.03,2.4,0.0,0.0,1.2804877758026123,0.0048828125,0.0078125,0.0,0.0015859996420991014,0.0,0.0014648064438480897,7.747032097238347e-05,0.0014640663151731827
1623764917.479291,0.0,0.0,2.03,2.4,0.0,0.0,1.2804877758026123,0.0048828125,0.0078125,0.0,0.0017223641118704822,0.0,0.0014648064438480897,8.341398167503021e-05,0.0014640663151731827
1623764917.479291,0.0,0.0,2.03,2.4,0.0,0.0,1.2804877758026123,0.0048828125,0.0078125,0.0,0.0017223641118704822,0.0,0.0014648064438480897,8.341398167503021e-05,0.0014640663151731827
1623764917.479291,0.0,0.0,2.03,2.4,0.0,0.0,1.2804877758026123,0.0048828125,0.0078125,0.0,0.0017223641118704822,0.0,0.001527739762904675,8.341398167503021e-05,0.00148123761637095
1623764917.479291,0.0,0.0,2.03,2.4,0.0,0.0,1.2804877758026123,0.0048828125,0.0078125,0.0,0.0017223641118704822,0.0,0.001527739762904675,8.341398167503021e-05,0.00148123761637095
1623764917.479291,0.0,0.0,2.03,2.4,0.0,0.0,1.2195122241973877,-0.01220703125,0.01123046875,0.0,0.0017223641118704822,0.0,0.001527739762904675,8.341398167503021e-05,0.00148123761637095
1623764917.537291,0.0,0.0,2.03,2.4,0.0,0.0,1.2195122241973877,-0.01220703125,0.01123046875,0.0,0.0016175500210932855,0.0,0.001527739762904675,7.753476100458718e-05,0.00148123761637095
1623764917.537291,0.0,0.0,2.03,2.4,0.0,0.0,1.2195122241973877,-0.01220703125,0.01123046875,0.0,0.0016175500210932855,0.0,0.001527739762904675,7.753476100458718e-05,0.00148123761637095
1623764917.537291,0.0,0.0,2.02,2.39,0.0,0.0,1.2195122241973877,-0.01220703125,0.01123046875,0.0,0.0016175500210932855,0.0,0.001501702564560053,7.753476100458718e-05,0.0014854707732093874
1623764917.537291,0.0,0.0,2.02,2.39,0.0,0.0,1.2195122241973877,-0.01220703125,0.01123046875,0.0,0.0016175500210932855,0.0,0.001501702564560053,7.753476100458718e-05,0.0014854707732093874
1623764917.537291,0.0,0.0,2.02,2.39,0.0,0.0,1.2195122241973877,-0.01220703125,0.01123046875,0.0,0.0016175500210932855,0.0,0.001501702564560053,7.753476100458718e-05,0.0014854707732093874
1623764917.597291,0.0,0.0,2.02,2.39,0.0,0.0,1.2195122241973877,-0.01220703125,0.01123046875,0.0,0.0016940569852063375,0.0,0.001501702564560053,8.028216079194622e-05,0.0014854707732093874
1623764917.597291,0.0,0.0,2.02,2.39,0.0,0.0,1.2195122241973877,-0.01220703125,0.01123046875,0.0,0.0016940569852063375,0.0,0.001501702564560053,8.028216079194622e-05,0.0014854707732093874
1623764917.597291,0.0,0.0,2.02,2.39,0.0,0.0,1.2195122241973877,-0.01220703125,0.01123046875,0.0,0.0016940569852063375,0.0,0.001501702564560053,8.028216079194622e-05,0.0014854707732093874
1623764917.597291,0.0,0.0,2.02,2.39,0.0,0.0,1.2195122241973877,-0.01220703125,0.01123046875,0.0,0.0016940569852063375,0.0,0.0015247706064106966,8.028216079194622e-05,0.001493375660632546
1623764917.597291,0.0,0.0,2.02,2.39,0.0,0.0,1.2195122241973877,-0.01220703125,0.01123046875,0.0,0.0016940569852063375,0.0,0.0015247706064106966,8.028216079194622e-05,0.001493375660632546
1623764917.657291,0.0,0.0,2.02,2.39,0.0,0.0,1.2195122241973877,-0.0009765625,0.009765625,0.0,0.0015871149843689825,0.0,0.0015247706064106966,7.683429041966368e-05,0.001493375660632546
1623764917.657291,0.0,0.0,2.02,2.39,0.0,0.0,1.2195122241973877,-0.0009765625,0.009765625,0.0,0.0015871149843689825,0.0,0.0015247706064106966,7.683429041966368e-05,0.001493375660632546
1623764917.657291,0.0,0.0,2.02,2.39,0.0,0.0,1.2195122241973877,-0.0009765625,0.009765625,0.0,0.0015871149843689825,0.0,0.0015247706064106966,7.683429041966368e-05,0.001493375660632546
1623764917.657291,0.0,0.0,2.01,2.38,0.0,0.0,1.2195122241973877,-0.0009765625,0.009765625,0.0,0.0015871149843689825,0.0,0.0014796073582726008,7.683429041966368e-05,0.0014961447666244246
1623764917.657291,0.0,0.0,2.01,2.38,0.0,0.0,1.2195122241973877,-0.0009765625,0.009765625,0.0,0.0017936827825318748,0.0,0.0014796073582726008,0.00013670451316496568,0.0014961447666244246
1623764917.687291,0.0,0.0,2.01,2.38,0.0,0.0,1.2195122241973877,-0.0009765625,0.009765625,0.0,0.0017936827825318748,0.0,0.0015757902527114486,0.00013670451316496568,0.0014993610886692929
1623764917.687291,0.0,0.0,2.01,2.38,0.0,0.0,1.2195122241973877,-0.0009765625,0.009765625,0.0,0.0017936827825318748,0.0,0.0015757902527114486,0.00013670451316496568,0.0014993610886692929
1623764917.687291,0.0,0.0,2.01,2.38,0.0,0.0,1.2195122241973877,-0.0009765625,0.009765625,0.0,0.0017936827825318748,0.0,0.0015757902527114486,0.00013670451316496568,0.0014993610886692929
1623764917.687291,0.0,0.0,2.01,2.38,0.0,0.0,1.097561001777649,-0.0068359375,0.0078125,0.0,0.0017936827825318748,0.0,0.0015757902527114486,0.00013670451316496568,0.0014993610886692929
1623764917.687291,0.0,0.0,2.01,2.38,0.0,0.0,1.097561001777649,-0.0068359375,0.0078125,0.0,0.0017350278184105202,0.0,0.0015757902527114486,8.258295251794397e-05,0.0014993610886692929
1623764917.7172909,0.0,0.0,2.01,2.38,0.0,0.0,1.097561001777649,-0.0068359375,0.0078125,0.0,0.0017350278184105202,0.0,0.0015757902527114486,8.258295251794397e-05,0.0014993610886692929
1623764917.7172909,0.0,0.0,2.01,2.38,0.0,0.0,1.097561001777649,-0.0068359375,0.0078125,0.0,0.0017350278184105202,0.0,0.0015757902527114486,8.258295251794397e-05,0.0014993610886692929
1623764917.7172909,0.0,0.0,2.01,2.38,0.0,0.0,1.097561001777649,-0.0068359375,0.0078125,0.0,0.0017350278184105202,0.0,0.0015757902527114486,8.258295251794397e-05,0.0014993610886692929
1623764917.7172909,0.0,0.0,2.01,2.38,0.0,0.0,1.097561001777649,-0.0068359375,0.0078125,0.0,0.0017350278184105202,0.0,0.0015757902527114486,8.258295251794397e-05,0.0014993610886692929
1623764917.7172909,0.0,0.0,2.01,2.38,0.0,0.0,1.097561001777649,-0.0068359375,0.0078125,0.0,0.001837036760065085,0.0,0.0015804289641488908,8.593023180596635e-05,0.0014667799516721888
1623764917.777291,0.0,0.0,2.01,2.38,0.0,0.0,1.097561001777649,-0.0068359375,0.0078125,0.0,0.001837036760065085,0.0,0.0015804289641488908,8.593023180596635e-05,0.0014667799516721888
1623764917.777291,0.0,0.0,2.01,2.38,0.0,0.0,1.097561001777649,-0.0068359375,0.0078125,0.0,0.001837036760065085,0.0,0.0015804289641488908,8.593023180596635e-05,0.0014667799516721888
1623764917.777291,0.0,0.0,2.01,2.38,0.0,0.0,1.2195122241973877,0.0048828125,0.00927734375,0.0,0.001837036760065085,0.0,0.0015804289641488908,8.593023180596635e-05,0.0014667799516721888
1623764917.777291,0.0,0.0,2.01,2.38,0.0,0.0,1.2195122241973877,0.0048828125,0.00927734375,0.0,0.001837036760065085,0.0,0.0015804289641488908,8.593023180596635e-05,0.0014667799516721888
1623764917.777291,0.0,0.0,2.01,2.38,0.0,0.0,1.2195122241973877,0.0048828125,0.00927734375,0.0,0.0017219634131797445,0.0,0.0016459102883247942,8.286286849349513e-05,0.0014842629621534223
1623764917.837291,0.0,0.0,2.01,2.38,0.0,0.0,1.2195122241973877,0.0048828125,0.00927734375,0.0,0.0017219634131797445,0.0,0.0016459102883247942,8.286286849349513e-05,0.0014842629621534223
1623764917.837291,0.0,0.0,2.01,2.38,0.0,0.0,1.2195122241973877,0.0048828125,0.00927734375,0.0,0.0017219634131797445,0.0,0.0016459102883247942,8.286286849349513e-05,0.0014842629621534223
1623764917.837291,0.0,0.0,2.01,2.39,0.0,0.0,1.2195122241973877,0.0048828125,0.00927734375,0.0,0.0017219634131797445,0.0,0.0016459102883247942,8.286286849349513e-05,0.0014842629621534223
1623764917.837291,0.0,0.0,2.01,2.39,0.0,0.0,1.2195122241973877,0.0048828125,0.00927734375,0.0,0.0017219634131797445,0.0,0.0016186884406184023,8.286286849349513e-05,0.0014979718839288607
1623764917.897291,0.0,0.0,2.01,2.39,0.0,0.0,1.2195122241973877,0.0048828125,0.00927734375,0.0,0.0017610801331168994,0.0,0.0016186884406184023,8.446396595219965e-05,0.0014979718839288607
1623764917.897291,0.0,0.0,2.01,2.39,0.0,0.0,1.2195122241973877,0.0048828125,0.00927734375,0.0,0.0017610801331168994,0.0,0.0016212928379913713,8.446396595219965e-05,0.0015106914193229485
1623764917.897291,0.0,0.0,2.01,2.39,0.0,0.0,1.2195122241973877,0.0048828125,0.00927734375,0.0,0.0017610801331168994,0.0,0.0016212928379913713,8.446396595219965e-05,0.0015106914193229485
1623764917.897291,0.0,0.0,2.01,2.39,0.0,0.0,1.2195122241973877,0.0048828125,0.00927734375,0.0,0.0017610801331168994,0.0,0.0016212928379913713,8.446396595219965e-05,0.0015106914193229485
1623764917.897291,0.0,0.0,2.01,2.39,0.0,0.0,1.2195122241973877,-0.001953125,0.0009765625,0.0,0.0017610801331168994,0.0,0.0016212928379913713,8.446396595219965e-05,0.0015106914193229485
1623764917.957291,0.0,0.0,2.01,2.39,0.0,0.0,1.2195122241973877,-0.001953125,0.0009765625,0.0,0.0016499239157578267,0.0,0.0016212928379913713,8.032011407814437e-05,0.0015106914193229485
1623764917.957291,0.0,0.0,2.01,2.39,0.0,0.0,1.2195122241973877,-0.001953125,0.0009765625,0.0,0.0016499239157578267,0.0,0.0016212928379913713,8.032011407814437e-05,0.0015106914193229485
1623764917.957291,0.0,0.0,2.01,2.39,0.0,0.0,1.2195122241973877,-0.001953125,0.0009765625,0.0,0.0016499239157578267,0.0,0.0016212928379913713,8.032011407814437e-05,0.0015106914193229485
1623764917.957291,0.0,0.0,2.0,2.39,0.0,0.0,1.2195122241973877,-0.001953125,0.0009765625,0.0,0.0016499239157578267,0.0,0.0016212928379913713,8.032011407814437e-05,0.0015106914193229485
1623764917.957291,0.0,0.0,2.0,2.39,0.0,0.0,1.2195122241973877,-0.001953125,0.0009765625,0.0,0.0016499239157578267,0.0,0.001564662018399128,8.032011407814437e-05,0.0015176906208223353
1623764917.979291,0.0,0.0,2.0,2.39,0.0,0.0,1.2195122241973877,-0.001953125,0.0009765625,0.0,0.001746554557632951,0.0,0.001564662018399128,0.0001221828738241217,0.0015176906208223353
1623764917.979291,0.0,0.0,2.0,2.39,0.0,0.0,1.2195122241973877,-0.001953125,0.0009765625,0.0,0.001746554557632951,0.0,0.001564662018399128,0.0001221828738241217,0.0015176906208223353
1623764917.979291,0.0,0.0,2.0,2.39,0.0,0.0,1.2195122241973877,-0.001953125,0.0009765625,0.0,0.001746554557632951,0.0,0.001564662018399128,0.0001221828738241217,0.0015176906208223353
1623764917.979291,0.0,0.0,2.0,2.39,0.0,0.0,1.2195122241973877,-0.001953125,0.0009765625,0.0,0.001746554557632951,0.0,0.001564662018399128,0.0001221828738241217,0.0015176906208223353
1623764917.979291,0.0,0.0,2.0,2.39,0.0,0.0,1.2195122241973877,0.00146484375,0.00830078125,0.0,0.001746554557632951,0.0,0.0016034294972007569,0.0001221828738241217,0.001500955459568202
1623764918.017291,0.0,0.0,2.0,2.39,0.0,0.0,1.2195122241973877,0.00146484375,0.00830078125,0.0,0.0016753904007978703,0.0,0.0016034294972007569,8.132959609669094e-05,0.001500955459568202
1623764918.017291,0.0,0.0,2.0,2.39,0.0,0.0,1.2195122241973877,0.00146484375,0.00830078125,0.0,0.0016753904007978703,0.0,0.0016034294972007569,8.132959609669094e-05,0.001500955459568202
1623764918.017291,0.0,0.0,1.99,2.39,0.0,0.0,1.2195122241973877,0.00146484375,0.00830078125,0.0,0.0016753904007978703,0.0,0.001579276805937563,8.132959609669094e-05,0.0014798648478396366
1623764918.017291,0.0,0.0,1.99,2.39,0.0,0.0,1.2195122241973877,0.00146484375,0.00830078125,0.0,0.0016753904007978703,0.0,0.001579276805937563,8.132959609669094e-05,0.0014798648478396366
1623764918.017291,0.0,0.0,1.99,2.39,0.0,0.0,1.2195122241973877,0.00146484375,0.00830078125,0.0,0.0016753904007978703,0.0,0.001579276805937563,8.132959609669094e-05,0.0014798648478396366
1623764918.083291,0.0,0.0,1.99,2.39,0.0,0.0,1.2195122241973877,0.00146484375,0.00830078125,0.0,0.0016988858105681552,0.0,0.001579276805937563,9.119867731231381e-05,0.0014798648478396366
1623764918.083291,0.0,0.0,1.99,2.39,0.0,0.0,1.2195122241973877,0.00146484375,0.00830078125,0.0,0.0016988858105681552,0.0,0.001579276805937563,9.119867731231381e-05,0.0014798648478396366
1623764918.083291,0.0,0.0,1.99,2.39,0.0,0.0,1.2195122241973877,0.00146484375,0.00830078125,0.0,0.0016988858105681552,0.0,0.0015857074278419292,9.119867731231381e-05,0.0015109138606209992
1623764918.083291,0.0,0.0,1.99,2.39,0.0,0.0,1.2195122241973877,0.00146484375,0.00830078125,0.0,0.0016988858105681552,0.0,0.0015857074278419292,9.119867731231381e-05,0.0015109138606209992
1623764918.083291,0.0,0.0,1.99,2.39,0.0,0.0,1.2195122241973877,0.00146484375,0.00830078125,0.0,0.0016988858105681552,0.0,0.0015857074278419292,9.119867731231381e-05,0.0015109138606209992
1623764918.137291,0.0,0.0,1.99,2.39,0.0,0.0,1.2195122241973877,-0.00634765625,0.01171875,0.0,0.0016022822286504853,0.0,0.0015857074278419292,7.779886518370757e-05,0.0015109138606209992
1623764918.137291,0.0,0.0,1.99,2.39,0.0,0.0,1.2195122241973877,-0.00634765625,0.01171875,0.0,0.0016022822286504853,0.0,0.0015857074278419292,7.779886518370757e-05,0.0015109138606209992
1623764918.137291,0.0,0.0,2.0,2.4,0.0,0.0,1.2195122241973877,-0.00634765625,0.01171875,0.0,0.0016022822286504853,0.0,0.0015857074278419292,7.779886518370757e-05,0.0015109138606209992
1623764918.137291,0.0,0.0,2.0,2.4,0.0,0.0,1.2195122241973877,-0.00634765625,0.01171875,0.0,0.0016022822286504853,0.0,0.0015335474867433645,7.779886518370757e-05,0.0015088433081881577
1623764918.137291,0.0,0.0,2.0,2.4,0.0,0.0,1.2195122241973877,-0.00634765625,0.01171875,0.0,0.0016022822286504853,0.0,0.0015335474867433645,7.779886518370757e-05,0.0015088433081881577
1623764918.197291,0.0,0.0,2.0,2.4,0.0,0.0,1.2195122241973877,-0.00634765625,0.01171875,0.0,0.0018057117804055436,0.0,0.0015335474867433645,8.399694965304887e-05,0.0015088433081881577
1623764918.197291,0.0,0.0,2.0,2.4,0.0,0.0,1.2195122241973877,-0.00634765625,0.01171875,0.0,0.0018057117804055436,0.0,0.0015335474867433645,8.399694965304887e-05,0.0015088433081881577
1623764918.197291,0.0,0.0,2.0,2.4,0.0,0.0,1.2195122241973877,0.001953125,0.00927734375,0.0,0.0018057117804055436,0.0,0.0015927790352280489,8.399694965304887e-05,0.0015198718046938971
1623764918.197291,0.0,0.0,2.0,2.4,0.0,0.0,1.2195122241973877,0.001953125,0.00927734375,0.0,0.0018057117804055436,0.0,0.0015927790352280489,8.399694965304887e-05,0.0015198718046938971
1623764918.197291,0.0,0.0,2.0,2.4,0.0,0.0,1.2195122241973877,0.001953125,0.00927734375,0.0,0.0018057117804055436,0.0,0.0015927790352280489,8.399694965304887e-05,0.0015198718046938971
1623764918.257291,0.0,0.0,2.0,2.4,0.0,0.0,1.2195122241973877,0.001953125,0.00927734375,0.0,0.0016919052993360985,0.0,0.0015927790352280489,8.121676667043721e-05,0.0015198718046938971
1623764918.257291,0.0,0.0,2.0,2.4,0.0,0.0,1.2195122241973877,0.001953125,0.00927734375,0.0,0.0016919052993360985,0.0,0.0015927790352280489,8.121676667043721e-05,0.0015198718046938971
1623764918.257291,0.0,0.0,2.0,2.4,0.0,0.0,1.2195122241973877,0.001953125,0.00927734375,0.0,0.0016919052993360985,0.0,0.001561866981457944,8.121676667043721e-05,0.001526355885533797
1623764918.257291,0.0,0.0,2.0,2.4,0.0,0.0,1.2195122241973877,0.001953125,0.00927734375,0.0,0.0016919052993360985,0.0,0.001561866981457944,8.121676667043721e-05,0.001526355885533797
1623764918.257291,0.0,0.0,2.0,2.4,0.0,0.0,1.2195122241973877,0.001953125,0.00927734375,0.0,0.0016919052993360985,0.0,0.001561866981457944,8.121676667043721e-05,0.001526355885533797
1623764918.271291,0.0,0.0,2.0,2.4,0.0,0.0,1.2195122241973877,0.001953125,0.00927734375,0.0,0.0015322250221162942,0.0,0.001561866981457944,9.889189232040928e-05,0.001526355885533797
1623764918.271291,0.0,0.0,2.0,2.4,0.0,0.0,1.2195122241973877,0.001953125,0.00927734375,0.0,0.0015322250221162942,0.0,0.0015164051727838861,9.889189232040928e-05,0.001483892729066686
1623764918.271291,0.0,0.0,2.0,2.4,0.0,0.0,1.2195122241973877,0.001953125,0.00927734375,0.0,0.0015322250221162942,0.0,0.0015164051727838861,9.889189232040928e-05,0.001483892729066686
1623764918.271291,0.0,0.0,2.0,2.4,0.0,0.0,1.3414634466171265,-0.00146484375,0.00537109375,0.0,0.0015322250221162942,0.0,0.0015164051727838861,9.889189232040928e-05,0.001483892729066686
1623764918.271291,0.0,0.0,2.0,2.4,0.0,0.0,1.3414634466171265,-0.00146484375,0.00537109375,0.0,0.0015322250221162942,0.0,0.0015164051727838861,9.889189232040928e-05,0.001483892729066686
1623764918.317291,0.0,0.0,2.0,2.4,0.0,0.0,1.3414634466171265,-0.00146484375,0.00537109375,0.0,0.0014577963070361135,0.0,0.0014502005163727104,7.26432816846804e-05,0.0014692077733442959
1623764918.317291,0.0,0.0,2.0,2.4,0.0,0.0,1.3414634466171265,-0.00146484375,0.00537109375,0.0,0.0014577963070361135,0.0,0.0014502005163727104,7.26432816846804e-05,0.0014692077733442959
1623764918.317291,0.0,0.0,2.01,2.4,0.0,0.0,1.3414634466171265,-0.00146484375,0.00537109375,0.0,0.0014577963070361135,0.0,0.0014502005163727104,7.26432816846804e-05,0.0014692077733442959
1623764918.317291,0.0,0.0,2.01,2.4,0.0,0.0,1.3414634466171265,-0.00146484375,0.00537109375,0.0,0.0014577963070361135,0.0,0.0014502005163727104,7.26432816846804e-05,0.0014692077733442959
1623764918.317291,0.0,0.0,2.01,2.4,0.0,0.0,1.3414634466171265,-0.00146484375,0.00537109375,0.0,0.0014577963070361135,0.0,0.0014502005163727104,7.26432816846804e-05,0.0014692077733442959
1623764918.377291,0.0,0.0,2.01,2.4,0.0,0.0,1.3414634466171265,-0.00146484375,0.00537109375,0.0,0.0016528096899358245,0.0,0.0014502005163727104,7.656191607622355e-05,0.0014692077733442959
1623764918.377291,0.0,0.0,2.01,2.4,0.0,0.0,1.3414634466171265,-0.00146484375,0.00537109375,0.0,0.0016528096899358245,0.0,0.0014902864101236186,7.656191607622355e-05,0.0014780336493963506
1623764918.377291,0.0,0.0,2.01,2.4,0.0,0.0,1.3414634466171265,-0.00146484375,0.00537109375,0.0,0.0016528096899358245,0.0,0.0014902864101236186,7.656191607622355e-05,0.0014780336493963506
1623764918.377291,0.0,0.0,2.01,2.4,0.0,0.0,1.2804877758026123,-0.00439453125,0.00390625,0.0,0.0016528096899358245,0.0,0.0014902864101236186,7.656191607622355e-05,0.0014780336493963506
1623764918.377291,0.0,0.0,2.01,2.4,0.0,0.0,1.2804877758026123,-0.00439453125,0.00390625,0.0,0.0016528096899358245,0.0,0.0014902864101236186,7.656191607622355e-05,0.0014780336493963506
1623764918.437291,0.0,0.0,2.01,2.4,0.0,0.0,1.2804877758026123,-0.00439453125,0.00390625,0.0,0.001549121766848067,0.0,0.0014902864101236186,7.421883931696199e-05,0.0014780336493963506
1623764918.437291,0.0,0.0,2.0,2.39,0.0,0.0,1.2804877758026123,-0.00439453125,0.00390625,0.0,0.001549121766848067,0.0,0.0014902864101236186,7.421883931696199e-05,0.0014780336493963506
1623764918.437291,0.0,0.0,2.0,2.39,0.0,0.0,1.2804877758026123,-0.00439453125,0.00390625,0.0,0.001549121766848067,0.0,0.0014902864101236186,7.421883931696199e-05,0.0014780336493963506
1623764918.437291,0.0,0.0,2.0,2.39,0.0,0.0,1.2804877758026123,-0.00439453125,0.00390625,0.0,0.001549121766848067,0.0,0.0014902864101236186,7.421883931696199e-05,0.0014780336493963506
1623764918.437291,0.0,0.0,2.0,2.39,0.0,0.0,1.2804877758026123,-0.00439453125,0.00390625,0.0,0.001549121766848067,0.0,0.001455410366167333,7.421883931696199e-05,0.0014833652295828707
1623764918.4972908,0.0,0.0,2.0,2.39,0.0,0.0,1.2804877758026123,-0.00439453125,0.00390625,0.0,0.0014878338118792698,0.0,0.001455410366167333,7.236759178608892e-05,0.0014833652295828707
1623764918.4972908,0.0,0.0,2.0,2.39,0.0,0.0,1.2804877758026123,-0.00439453125,0.00390625,0.0,0.0014878338118792698,0.0,0.001455410366167333,7.236759178608892e-05,0.0014833652295828707
1623764918.4972908,0.0,0.0,2.0,2.39,0.0,0.0,1.2804877758026123,-0.00439453125,0.00390625,0.0,0.0014878338118792698,0.0,0.001455410366167333,7.236759178608892e-05,0.0014833652295828707
1623764918.4972908,0.0,0.0,2.0,2.39,0.0,0.0,1.2195122241973877,-0.00927734375,0.00146484375,0.0,0.0014878338118792698,0.0,0.001455410366167333,7.236759178608892e-05,0.0014833652295828707
1623764918.4972908,0.0,0.0,2.0,2.39,0.0,0.0,1.2195122241973877,-0.00927734375,0.00146484375,0.0,0.0013938571354396362,0.0,0.001410318361316602,6.829634652782171e-05,0.001484638509441147
1623764918.557291,0.0,0.0,2.0,2.39,0.0,0.0,1.2195122241973877,-0.00927734375,0.00146484375,0.0,0.0013938571354396362,0.0,0.001410318361316602,6.829634652782171e-05,0.001484638509441147
1623764918.557291,0.0,0.0,2.0,2.39,0.0,0.0,1.2195122241973877,-0.00927734375,0.00146484375,0.0,0.0013938571354396362,0.0,0.001410318361316602,6.829634652782171e-05,0.001484638509441147
1623764918.557291,0.0,0.0,2.02,2.39,0.0,0.0,1.2195122241973877,-0.00927734375,0.00146484375,0.0,0.0013938571354396362,0.0,0.001410318361316602,6.829634652782171e-05,0.001484638509441147
1623764918.557291,0.0,0.0,2.02,2.39,0.0,0.0,1.2195122241973877,-0.00927734375,0.00146484375,0.0,0.0013938571354396362,0.0,0.0013376155142399949,6.829634652782171e-05,0.0014800566484843359
1623764918.557291,0.0,0.0,2.02,2.39,0.0,0.0,1.2195122241973877,-0.00927734375,0.00146484375,0.0,0.0013938571354396362,0.0,0.0013376155142399949,6.829634652782171e-05,0.0014800566484843359
1623764918.583291,0.0,0.0,2.02,2.39,0.0,0.0,1.2195122241973877,-0.00927734375,0.00146484375,0.0,0.0017251041020540274,0.0,0.0013376155142399949,0.00012231046538788745,0.0014800566484843359
1623764918.583291,0.0,0.0,2.02,2.39,0.0,0.0,1.2195122241973877,-0.00927734375,0.00146484375,0.0,0.0017251041020540274,0.0,0.0013376155142399949,0.00012231046538788745,0.0014800566484843359
1623764918.583291,0.0,0.0,2.02,2.39,0.0,0.0,1.2195122241973877,-0.00927734375,0.00146484375,0.0,0.0017251041020540274,0.0,0.0013376155142399949,0.00012231046538788745,0.0014800566484843359
1623764918.583291,0.0,0.0,2.02,2.39,0.0,0.0,1.2195122241973877,-0.00927734375,0.00146484375,0.0,0.0017251041020540274,0.0,0.0014609666345755743,0.00012231046538788745,0.001474150815448473
1623764918.583291,0.0,0.0,2.02,2.39,0.0,0.0,1.2195122241973877,-0.00927734375,0.00146484375,0.0,0.0017251041020540274,0.0,0.0014609666345755743,0.00012231046538788745,0.001474150815448473
1623764918.617291,0.0,0.0,2.02,2.39,0.0,0.0,1.2195122241973877,-0.00732421875,0.0048828125,0.0,0.0016618368982048107,0.0,0.0014609666345755743,7.824198778818383e-05,0.001474150815448473
1623764918.617291,0.0,0.0,2.02,2.39,0.0,0.0,1.2195122241973877,-0.00732421875,0.0048828125,0.0,0.0016618368982048107,0.0,0.0014609666345755743,7.824198778818383e-05,0.001474150815448473
1623764918.617291,0.0,0.0,2.02,2.39,0.0,0.0,1.2195122241973877,-0.00732421875,0.0048828125,0.0,0.0016618368982048107,0.0,0.0014609666345755743,7.824198778818383e-05,0.001474150815448473
1623764918.617291,0.0,0.0,2.0,2.39,0.0,0.0,1.2195122241973877,-0.00732421875,0.0048828125,0.0,0.0016618368982048107,0.0,0.0014609666345755743,7.824198778818383e-05,0.001474150815448473
1623764918.617291,0.0,0.0,2.0,2.39,0.0,0.0,1.2195122241973877,-0.00732421875,0.0048828125,0.0,0.0016618368982048107,0.0,0.001480313425201113,7.824198778818383e-05,0.0014469663104578932
1623764918.687291,0.0,0.0,2.0,2.39,0.0,0.0,1.2195122241973877,-0.00732421875,0.0048828125,0.0,0.0017539258619590535,0.0,0.001480313425201113,9.894676016834907e-05,0.0014469663104578932
1623764918.687291,0.0,0.0,2.0,2.39,0.0,0.0,1.2195122241973877,-0.00732421875,0.0048828125,0.0,0.0017539258619590535,0.0,0.001480313425201113,9.894676016834907e-05,0.0014469663104578932
1623764918.687291,0.0,0.0,2.0,2.39,0.0,0.0,1.2195122241973877,-0.00048828125,0.0029296875,0.0,0.0017539258619590535,0.0,0.001480313425201113,9.894676016834907e-05,0.0014469663104578932
1623764918.687291,0.0,0.0,2.0,2.39,0.0,0.0,1.2195122241973877,-0.00048828125,0.0029296875,0.0,0.0017539258619590535,0.0,0.0015589385456969203,9.894676016834907e-05,0.0014887308134336435
1623764918.687291,0.0,0.0,2.0,2.39,0.0,0.0,1.2195122241973877,-0.00048828125,0.0029296875,0.0,0.001661262094651378,0.0,0.0015589385456969203,7.966770596329904e-05,0.0014887308134336435
1623764918.7372909,0.0,0.0,2.0,2.39,0.0,0.0,1.2195122241973877,-0.00048828125,0.0029296875,0.0,0.001661262094651378,0.0,0.0015589385456969203,7.966770596329904e-05,0.0014887308134336435
1623764918.7372909,0.0,0.0,2.0,2.39,0.0,0.0,1.2195122241973877,-0.00048828125,0.0029296875,0.0,0.001661262094651378,0.0,0.0015589385456969203,7.966770596329904e-05,0.0014887308134336435
1623764918.7372909,0.0,0.0,2.01,2.39,0.0,0.0,1.2195122241973877,-0.00048828125,0.0029296875,0.0,0.001661262094651378,0.0,0.0015589385456969203,7.966770596329904e-05,0.0014887308134336435
1623764918.7372909,0.0,0.0,2.01,2.39,0.0,0.0,1.2195122241973877,-0.00048828125,0.0029296875,0.0,0.001661262094651378,0.0,0.001539713403043497,7.966770596329904e-05,0.0014828008435969725
1623764918.797291,0.0,0.0,2.01,2.39,0.0,0.0,1.2195122241973877,-0.00048828125,0.0029296875,0.0,0.0017002818874754997,0.0,0.001539713403043497,8.163070990586612e-05,0.0014828008435969725
1623764918.797291,0.0,0.0,2.01,2.39,0.0,0.0,1.2195122241973877,-0.00048828125,0.0029296875,0.0,0.0017002818874754997,0.0,0.001539713403043497,8.163070990586612e-05,0.0014828008435969725
1623764918.797291,0.0,0.0,2.01,2.39,0.0,0.0,1.2195122241973877,-0.00048828125,0.0029296875,0.0,0.0017002818874754997,0.0,0.001539713403043497,8.163070990586612e-05,0.0014828008435969725
1623764918.797291,0.0,0.0,2.01,2.39,0.0,0.0,1.2804877758026123,-0.0087890625,0.00732421875,0.0,0.0017002818874754997,0.0,0.001539713403043497,8.163070990586612e-05,0.0014828008435969725
1623764918.797291,0.0,0.0,2.01,2.39,0.0,0.0,1.2804877758026123,-0.0087890625,0.00732421875,0.0,0.0017002818874754997,0.0,0.001552808009223316,8.163070990586612e-05,0.0014922656904156398
1623764918.857291,0.0,0.0,2.01,2.39,0.0,0.0,1.2804877758026123,-0.0087890625,0.00732421875,0.0,0.0015931814101883834,0.0,0.001552808009223316,7.759190381198312e-05,0.0014922656904156398
1623764918.857291,0.0,0.0,2.01,2.39,0.0,0.0,1.2804877758026123,-0.0087890625,0.00732421875,0.0,0.0015931814101883834,0.0,0.001552808009223316,7.759190381198312e-05,0.0014922656904156398
1623764918.857291,0.0,0.0,2.0,2.4,0.0,0.0,1.2804877758026123,-0.0087890625,0.00732421875,0.0,0.0015931814101883834,0.0,0.001552808009223316,7.759190381198312e-05,0.0014922656904156398
1623764918.857291,0.0,0.0,2.0,2.4,0.0,0.0,1.2804877758026123,-0.0087890625,0.00732421875,0.0,0.0015931814101883834,0.0,0.001552808009223316,7.759190381198312e-05,0.0014922656904156398
1623764918.857291,0.0,0.0,2.0,2.4,0.0,0.0,1.2804877758026123,-0.0087890625,0.00732421875,0.0,0.0015931814101883834,0.0,0.0015030266386110364,7.759190381198312e-05,0.0014965711151324916
1623764918.8752909,0.0,0.0,2.0,2.4,0.0,0.0,1.2804877758026123,-0.0087890625,0.00732421875,0.0,0.0016967239974803924,0.0,0.0015030266386110364,0.00011163472611195944,0.0014965711151324916
1623764918.8752909,0.0,0.0,2.0,2.4,0.0,0.0,1.2804877758026123,-0.0087890625,0.00732421875,0.0,0.0016967239974803924,0.0,0.0015030266386110364,0.00011163472611195944,0.0014965711151324916
1623764918.8752909,0.0,0.0,2.0,2.4,0.0,0.0,1.2804877758026123,-0.0087890625,0.00732421875,0.0,0.0016967239974803924,0.0,0.0015030266386110364,0.00011163472611195944,0.0014965711151324916
1623764918.8752909,0.0,0.0,2.0,2.4,0.0,0.0,1.2804877758026123,-0.0087890625,0.00732421875,0.0,0.0016967239974803924,0.0,0.001545756687928943,0.00011163472611195944,0.0014703172935569791
1623764918.8752909,0.0,0.0,2.0,2.4,0.0,0.0,1.2804877758026123,-0.0087890625,0.00732421875,0.0,0.0016967239974803924,0.0,0.001545756687928943,0.00011163472611195944,0.0014703172935569791
1623764918.917291,0.0,0.0,2.0,2.4,0.0,0.0,1.2195122241973877,0.00048828125,0.0087890625,0.0,0.0016209249622942327,0.0,0.001545756687928943,7.865646346189535e-05,0.0014703172935569791
1623764918.917291,0.0,0.0,2.0,2.4,0.0,0.0,1.2195122241973877,0.00048828125,0.0087890625,0.0,0.0016209249622942327,0.0,0.001545756687928943,7.865646346189535e-05,0.0014703172935569791
1623764918.917291,0.0,0.0,2.0,2.4,0.0,0.0,1.2195122241973877,0.00048828125,0.0087890625,0.0,0.0016209249622942327,0.0,0.001545756687928943,7.865646346189535e-05,0.0014703172935569791
1623764918.917291,0.0,0.0,1.99,2.39,0.0,0.0,1.2195122241973877,0.00048828125,0.0087890625,0.0,0.0016209249622942327,0.0,0.001545756687928943,7.865646346189535e-05,0.0014703172935569791
1623764918.917291,0.0,0.0,1.99,2.39,0.0,0.0,1.2195122241973877,0.00048828125,0.0087890625,0.0,0.0016209249622942327,0.0,0.0015247875136477583,7.865646346189535e-05,0.0014548072836855356
1623764918.979291,0.0,0.0,1.99,2.39,0.0,0.0,1.2195122241973877,0.00048828125,0.0087890625,0.0,0.0017373737806391605,0.0,0.0015247875136477583,8.455157870500216e-05,0.0014548072836855356
1623764918.979291,0.0,0.0,1.99,2.39,0.0,0.0,1.2195122241973877,0.00048828125,0.0087890625,0.0,0.0017373737806391605,0.0,0.0015700950384305308,8.455157870500216e-05,0.0014750198559604307
1623764918.979291,0.0,0.0,1.99,2.39,0.0,0.0,1.2195122241973877,0.00048828125,0.0087890625,0.0,0.0017373737806391605,0.0,0.0015700950384305308,8.455157870500216e-05,0.0014750198559604307
1623764918.979291,0.0,0.0,1.99,2.39,0.0,0.0,1.2195122241973877,0.00048828125,0.0087890625,0.0,0.0017373737806391605,0.0,0.0015700950384305308,8.455157870500216e-05,0.0014750198559604307
1623764918.979291,0.0,0.0,1.99,2.39,0.0,0.0,1.3414634466171265,-0.0126953125,0.0146484375,0.0,0.0017373737806391605,0.0,0.0015700950384305308,8.455157870500216e-05,0.0014750198559604307
1623764919.037291,0.0,0.0,1.99,2.39,0.0,0.0,1.3414634466171265,-0.0126953125,0.0146484375,0.0,0.001631737928105771,0.0,0.0015700950384305308,7.845187389824721e-05,0.0014750198559604307
1623764919.037291,0.0,0.0,1.99,2.39,0.0,0.0,1.3414634466171265,-0.0126953125,0.0146484375,0.0,0.001631737928105771,0.0,0.0015355750129379434,7.845187389824721e-05,0.001481843015841034
1623764919.037291,0.0,0.0,1.99,2.39,0.0,0.0,1.3414634466171265,-0.0126953125,0.0146484375,0.0,0.001631737928105771,0.0,0.0015355750129379434,7.845187389824721e-05,0.001481843015841034
1623764919.037291,0.0,0.0,1.99,2.39,0.0,0.0,1.3414634466171265,-0.0126953125,0.0146484375,0.0,0.001631737928105771,0.0,0.0015355750129379434,7.845187389824721e-05,0.001481843015841034
1623764919.037291,0.0,0.0,2.0,2.38,0.0,0.0,1.3414634466171265,-0.0126953125,0.0146484375,0.0,0.001631737928105771,0.0,0.0015355750129379434,7.845187389824721e-05,0.001481843015841034
1623764919.097291,0.0,0.0,2.0,2.38,0.0,0.0,1.3414634466171265,-0.0126953125,0.0146484375,0.0,0.0016577145621471552,0.0,0.0015355750129379434,7.933304558619329e-05,0.001481843015841034
1623764919.097291,0.0,0.0,2.0,2.38,0.0,0.0,1.3414634466171265,-0.0126953125,0.0146484375,0.0,0.0016577145621471552,0.0,0.0015355750129379434,7.933304558619329e-05,0.001481843015841034
1623764919.097291,0.0,0.0,2.0,2.38,0.0,0.0,1.3414634466171265,-0.0126953125,0.0146484375,0.0,0.0016577145621471552,0.0,0.0015355750129379434,7.933304558619329e-05,0.001481843015841034
1623764919.097291,0.0,0.0,2.0,2.38,0.0,0.0,1.2195122241973877,-0.005859375,0.00146484375,0.0,0.0016577145621471552,0.0,0.0015355750129379434,7.933304558619329e-05,0.001481843015841034
1623764919.097291,0.0,0.0,2.0,2.38,0.0,0.0,1.2195122241973877,-0.005859375,0.00146484375,0.0,0.0016577145621471552,0.0,0.001529459979456995,7.933304558619329e-05,0.0014902933197535582
1623764919.157291,0.0,0.0,2.0,2.38,0.0,0.0,1.2195122241973877,-0.005859375,0.00146484375,0.0,0.0015530902356141374,0.0,0.001529459979456995,7.55281257522757e-05,0.0014902933197535582
1623764919.157291,0.0,0.0,2.0,2.38,0.0,0.0,1.2195122241973877,-0.005859375,0.00146484375,0.0,0.0015530902356141374,0.0,0.001529459979456995,7.55281257522757e-05,0.0014902933197535582
1623764919.157291,0.0,0.0,2.0,2.38,0.0,0.0,1.2195122241973877,-0.005859375,0.00146484375,0.0,0.0015530902356141374,0.0,0.001529459979456995,7.55281257522757e-05,0.0014902933197535582
1623764919.157291,0.0,0.0,2.01,2.38,0.0,0.0,1.2195122241973877,-0.005859375,0.00146484375,0.0,0.0015530902356141374,0.0,0.001529459979456995,7.55281257522757e-05,0.0014902933197535582
1623764919.157291,0.0,0.0,2.01,2.38,0.0,0.0,1.2195122241973877,-0.005859375,0.00146484375,0.0,0.0015530902356141374,0.0,0.0014712852119107167,7.55281257522757e-05,0.0014930897440262882
1623764919.167291,0.0,0.0,2.01,2.38,0.0,0.0,1.2195122241973877,-0.005859375,0.00146484375,0.0,0.0015730333918455015,0.0,0.0014767968505416658,9.227584721069662e-05,0.001444905457681472
1623764919.167291,0.0,0.0,2.01,2.38,0.0,0.0,1.2195122241973877,-0.005859375,0.00146484375,0.0,0.0015730333918455015,0.0,0.0014767968505416658,9.227584721069662e-05,0.001444905457681472
1623764919.167291,0.0,0.0,2.01,2.38,0.0,0.0,1.2195122241973877,-0.005859375,0.00146484375,0.0,0.0015730333918455015,0.0,0.0014767968505416658,9.227584721069662e-05,0.001444905457681472
1623764919.167291,0.0,0.0,2.01,2.38,0.0,0.0,1.2804877758026123,-0.0048828125,0.0078125,0.0,0.0015730333918455015,0.0,0.0014767968505416658,9.227584721069662e-05,0.001444905457681472
1623764919.167291,0.0,0.0,2.01,2.38,0.0,0.0,1.2804877758026123,-0.0048828125,0.0078125,0.0,0.0015730333918455015,0.0,0.0014767968505416658,9.227584721069662e-05,0.001444905457681472
1623764919.2172909,0.0,0.0,2.01,2.38,0.0,0.0,1.2804877758026123,-0.0048828125,0.0078125,0.0,0.001490381208098648,0.0,0.0014767968505416658,7.301905951117079e-05,0.001444905457681472
1623764919.2172909,0.0,0.0,2.01,2.38,0.0,0.0,1.2804877758026123,-0.0048828125,0.0078125,0.0,0.001490381208098648,0.0,0.0014767968505416658,7.301905951117079e-05,0.001444905457681472
1623764919.2172909,0.0,0.0,2.01,2.38,0.0,0.0,1.2804877758026123,-0.0048828125,0.0078125,0.0,0.001490381208098648,0.0,0.0014767968505416658,7.301905951117079e-05,0.001444905457681472
1623764919.2172909,0.0,0.0,2.0,2.38,0.0,0.0,1.2804877758026123,-0.0048828125,0.0078125,0.0,0.001490381208098648,0.0,0.0014767968505416658,7.301905951117079e-05,0.001444905457681472
1623764919.2172909,0.0,0.0,2.0,2.38,0.0,0.0,1.2804877758026123,-0.0048828125,0.0078125,0.0,0.001490381208098648,0.0,0.0014767968505416658,7.301905951117079e-05,0.001444905457681472
1623764919.277291,0.0,0.0,2.0,2.38,0.0,0.0,1.2804877758026123,-0.0048828125,0.0078125,0.0,0.0016987936592536919,0.0,0.0014364957434586133,7.842550883221899e-05,0.0014383255683516976
1623764919.277291,0.0,0.0,2.0,2.38,0.0,0.0,1.2804877758026123,-0.0048828125,0.0078125,0.0,0.0016987936592536919,0.0,0.0014364957434586133,7.842550883221899e-05,0.0014383255683516976
1623764919.277291,0.0,0.0,2.0,2.38,0.0,0.0,1.2804877758026123,-0.00390625,0.0078125,0.0,0.0016987936592536919,0.0,0.0014364957434586133,7.842550883221899e-05,0.0014383255683516976
1623764919.277291,0.0,0.0,2.0,2.38,0.0,0.0,1.2804877758026123,-0.00390625,0.0078125,0.0,0.0016987936592536919,0.0,0.0014364957434586133,7.842550883221899e-05,0.0014383255683516976
1623764919.277291,0.0,0.0,2.0,2.38,0.0,0.0,1.2804877758026123,-0.00390625,0.0078125,0.0,0.0015921156678717961,0.0,0.0015019608999197116,7.616318916709746e-05,0.0014501797166693176
1623764919.337291,0.0,0.0,2.0,2.38,0.0,0.0,1.2804877758026123,-0.00390625,0.0078125,0.0,0.0015921156678717961,0.0,0.0014783397577248286,7.616318916709746e-05,0.0014588458584640113
1623764919.337291,0.0,0.0,2.0,2.38,0.0,0.0,1.2804877758026123,-0.00390625,0.0078125,0.0,0.0015921156678717961,0.0,0.0014783397577248286,7.616318916709746e-05,0.0014588458584640113
1623764919.337291,0.0,0.0,2.0,2.37,0.0,0.0,1.2804877758026123,-0.00390625,0.0078125,0.0,0.0015921156678717961,0.0,0.0014783397577248286,7.616318916709746e-05,0.0014588458584640113
1623764919.337291,0.0,0.0,2.0,2.37,0.0,0.0,1.2804877758026123,-0.00390625,0.0078125,0.0,0.0015921156678717961,0.0,0.0014783397577248286,7.616318916709746e-05,0.0014588458584640113
1623764919.337291,0.0,0.0,2.0,2.37,0.0,0.0,1.2804877758026123,-0.00390625,0.0078125,0.0,0.0015921156678717961,0.0,0.0014783397577248286,7.616318916709746e-05,0.0014588458584640113
1623764919.397291,0.0,0.0,2.0,2.37,0.0,0.0,1.2804877758026123,-0.00390625,0.0078125,0.0,0.0015242985758643023,0.0,0.0014783397577248286,7.424023040861305e-05,0.0014588458584640113
1623764919.397291,0.0,0.0,2.0,2.37,0.0,0.0,1.2804877758026123,-0.00390625,0.0078125,0.0,0.0015242985758643023,0.0,0.0014783397577248286,7.424023040861305e-05,0.0014588458584640113
1623764919.397291,0.0,0.0,2.0,2.37,0.0,0.0,1.2804877758026123,-0.00390625,0.0078125,0.0,0.0015242985758643023,0.0,0.0014783397577248286,7.424023040861305e-05,0.0014588458584640113
1623764919.397291,0.0,0.0,2.0,2.37,0.0,0.0,1.2804877758026123,-0.00390625,0.0078125,0.0,0.0015242985758643023,0.0,0.0014783397577248286,7.424023040861305e-05,0.0014588458584640113
1623764919.397291,0.0,0.0,2.0,2.37,0.0,0.0,1.2195122241973877,-0.0029296875,0.00537109375,0.0,0.0015242985758643023,0.0,0.0014385720967290004,7.424023040861305e-05,0.001463443690029229
1623764919.457291,0.0,0.0,2.0,2.37,0.0,0.0,1.2195122241973877,-0.0029296875,0.00537109375,0.0,0.001427913409164245,0.0,0.0014385720967290004,7.00093573338615e-05,0.001463443690029229
1623764919.457291,0.0,0.0,2.0,2.37,0.0,0.0,1.2195122241973877,-0.0029296875,0.00537109375,0.0,0.001427913409164245,0.0,0.0014385720967290004,7.00093573338615e-05,0.001463443690029229
1623764919.457291,0.0,0.0,1.99,2.38,0.0,0.0,1.2195122241973877,-0.0029296875,0.00537109375,0.0,0.001427913409164245,0.0,0.0014385720967290004,7.00093573338615e-05,0.001463443690029229
1623764919.457291,0.0,0.0,1.99,2.38,0.0,0.0,1.2195122241973877,-0.0029296875,0.00537109375,0.0,0.001427913409164245,0.0,0.0014385720967290004,7.00093573338615e-05,0.001463443690029229
1623764919.457291,0.0,0.0,1.99,2.38,0.0,0.0,1.2195122241973877,-0.0029296875,0.00537109375,0.0,0.0017290334815415033,0.0,0.0013675360945499964,0.00011676742867732517,0.0014619283633345043
1623764919.479291,0.0,0.0,1.99,2.38,0.0,0.0,1.2195122241973877,-0.0029296875,0.00537109375,0.0,0.0017290334815415033,0.0,0.0013675360945499964,0.00011676742867732517,0.0014619283633345043
1623764919.479291,0.0,0.0,1.99,2.38,0.0,0.0,1.2195122241973877,-0.0029296875,0.00537109375,0.0,0.0017290334815415033,0.0,0.0013675360945499964,0.00011676742867732517,0.0014619283633345043
1623764919.479291,0.0,0.0,1.99,2.38,0.0,0.0,1.2195122241973877,-0.0029296875,0.00537109375,0.0,0.0017290334815415033,0.0,0.0013675360945499964,0.00011676742867732517,0.0014619283633345043
1623764919.479291,0.0,0.0,1.99,2.38,0.0,0.0,1.2804877758026123,0.00048828125,0.017578125,0.0,0.0017290334815415033,0.0,0.001477268115445961,0.00011676742867732517,0.0014485062457579056
1623764919.479291,0.0,0.0,1.99,2.38,0.0,0.0,1.2804877758026123,0.00048828125,0.017578125,0.0,0.0016586210490086935,0.0,0.001477268115445961,7.86783862853354e-05,0.0014485062457579056
1623764919.517291,0.0,0.0,1.99,2.38,0.0,0.0,1.2804877758026123,0.00048828125,0.017578125,0.0,0.0016586210490086935,0.0,0.001477268115445961,7.86783862853354e-05,0.0014485062457579056
1623764919.517291,0.0,0.0,1.99,2.38,0.0,0.0,1.2804877758026123,0.00048828125,0.017578125,0.0,0.0016586210490086935,0.0,0.001477268115445961,7.86783862853354e-05,0.0014485062457579056
1623764919.517291,0.0,0.0,1.98,2.37,0.0,0.0,1.2804877758026123,0.00048828125,0.017578125,0.0,0.0016586210490086935,0.0,0.001477268115445961,7.86783862853354e-05,0.0014485062457579056
1623764919.517291,0.0,0.0,1.98,2.37,0.0,0.0,1.2804877758026123,0.00048828125,0.017578125,0.0,0.0016586210490086935,0.0,0.001477268115445961,7.86783862853354e-05,0.0014485062457579056
1623764919.517291,0.0,0.0,1.98,2.37,0.0,0.0,1.2804877758026123,0.00048828125,0.017578125,0.0,0.001726063615353923,0.0,0.0014902437918187506,9.109816644462089e-05,0.0014285806792692123
1623764919.583291,0.0,0.0,1.98,2.37,0.0,0.0,1.2804877758026123,0.00048828125,0.017578125,0.0,0.001726063615353923,0.0,0.0014902437918187506,9.109816644462089e-05,0.0014285806792692123
1623764919.583291,0.0,0.0,1.98,2.37,0.0,0.0,1.2804877758026123,0.00048828125,0.017578125,0.0,0.001726063615353923,0.0,0.0014902437918187506,9.109816644462089e-05,0.0014285806792692123
1623764919.583291,0.0,0.0,1.98,2.37,0.0,0.0,1.1585365533828735,-0.00634765625,0.009765625,0.0,0.001726063615353923,0.0,0.0014902437918187506,9.109816644462089e-05,0.0014285806792692123
1623764919.583291,0.0,0.0,1.98,2.37,0.0,0.0,1.1585365533828735,-0.00634765625,0.009765625,0.0,0.001726063615353923,0.0,0.0014902437918187506,9.109816644462089e-05,0.0014285806792692123
1623764919.583291,0.0,0.0,1.98,2.37,0.0,0.0,1.1585365533828735,-0.00634765625,0.009765625,0.0,0.0016279293968678317,0.0,0.0015486316626919633,7.836032572509847e-05,0.0014602968998986352
1623764919.637291,0.0,0.0,1.98,2.37,0.0,0.0,1.1585365533828735,-0.00634765625,0.009765625,0.0,0.0016279293968678317,0.0,0.0015486316626919633,7.836032572509847e-05,0.0014602968998986352
1623764919.637291,0.0,0.0,1.98,2.37,0.0,0.0,1.1585365533828735,-0.00634765625,0.009765625,0.0,0.0016279293968678317,0.0,0.0015486316626919633,7.836032572509847e-05,0.0014602968998986352
1623764919.637291,0.0,0.0,1.98,2.37,0.0,0.0,1.1585365533828735,-0.00634765625,0.009765625,0.0,0.0016279293968678317,0.0,0.0015486316626919633,7.836032572509847e-05,0.0014602968998986352
1623764919.637291,0.0,0.0,1.98,2.37,0.0,0.0,1.1585365533828735,-0.00634765625,0.009765625,0.0,0.0016279293968678317,0.0,0.0015206368961066467,7.836032572509847e-05,0.00146102627454623
1623764919.637291,0.0,0.0,1.98,2.37,0.0,0.0,1.1585365533828735,-0.00634765625,0.009765625,0.0,0.001778685055893531,0.0,0.0015206368961066467,8.439858013656658e-05,0.00146102627454623
1623764919.697291,0.0,0.0,1.98,2.37,0.0,0.0,1.1585365533828735,-0.00634765625,0.009765625,0.0,0.001778685055893531,0.0,0.0015206368961066467,8.439858013656658e-05,0.00146102627454623
1623764919.697291,0.0,0.0,1.98,2.37,0.0,0.0,1.1585365533828735,-0.00634765625,0.009765625,0.0,0.001778685055893531,0.0,0.0015206368961066467,8.439858013656658e-05,0.00146102627454623
1623764919.697291,0.0,0.0,1.98,2.37,0.0,0.0,1.1585365533828735,-0.00634765625,0.009765625,0.0,0.001778685055893531,0.0,0.0015206368961066467,8.439858013656658e-05,0.00146102627454623
1623764919.697291,0.0,0.0,1.98,2.37,0.0,0.0,1.1585365533828735,-0.00146484375,0.01025390625,0.0,0.001778685055893531,0.0,0.0015206368961066467,8.439858013656658e-05,0.00146102627454623
1623764919.757291,0.0,0.0,1.98,2.37,0.0,0.0,1.1585365533828735,-0.00146484375,0.01025390625,0.0,0.0016665707983787074,0.0,0.001575168027001628,8.073083502052757e-05,0.001473920006245884
1623764919.757291,0.0,0.0,1.98,2.37,0.0,0.0,1.1585365533828735,-0.00146484375,0.01025390625,0.0,0.0016665707983787074,0.0,0.001575168027001628,8.073083502052757e-05,0.001473920006245884
1623764919.757291,0.0,0.0,1.98,2.37,0.0,0.0,1.1585365533828735,-0.00146484375,0.01025390625,0.0,0.0016665707983787074,0.0,0.001575168027001628,8.073083502052757e-05,0.001473920006245884
1623764919.757291,0.0,0.0,2.01,2.36,0.0,0.0,1.1585365533828735,-0.00146484375,0.01025390625,0.0,0.0016665707983787074,0.0,0.001575168027001628,8.073083502052757e-05,0.001473920006245884
1623764919.757291,0.0,0.0,2.01,2.36,0.0,0.0,1.1585365533828735,-0.00146484375,0.01025390625,0.0,0.0016665707983787074,0.0,0.0015431310119465886,8.073083502052757e-05,0.0014820404717482288
1623764919.771291,0.0,0.0,2.01,2.36,0.0,0.0,1.1585365533828735,-0.00146484375,0.01025390625,0.0,0.0017439510113256554,0.0,0.0015431310119465886,0.00010791844123076727,0.0014820404717482288
1623764919.771291,0.0,0.0,2.01,2.36,0.0,0.0,1.1585365533828735,-0.00146484375,0.01025390625,0.0,0.0017439510113256554,0.0,0.0015431310119465886,0.00010791844123076727,0.0014820404717482288
1623764919.771291,0.0,0.0,2.01,2.36,0.0,0.0,1.1585365533828735,-0.00146484375,0.01025390625,0.0,0.0017439510113256554,0.0,0.0015431310119465886,0.00010791844123076727,0.0014820404717482288
1623764919.771291,0.0,0.0,2.01,2.36,0.0,0.0,1.2195122241973877,-0.00244140625,0.015625,0.0,0.0017439510113256554,0.0,0.0015431310119465886,0.00010791844123076727,0.0014820404717482288
1623764919.771291,0.0,0.0,2.01,2.36,0.0,0.0,1.2195122241973877,-0.00244140625,0.015625,0.0,0.0017439510113256554,0.0,0.0015860837076197034,0.00010791844123076727,0.0014477791547652928
1623764919.817291,0.0,0.0,2.01,2.36,0.0,0.0,1.2195122241973877,-0.00244140625,0.015625,0.0,0.0016590226758566712,0.0,0.0015860837076197034,8.064147320422432e-05,0.0014477791547652928
1623764919.817291,0.0,0.0,2.01,2.36,0.0,0.0,1.2195122241973877,-0.00244140625,0.015625,0.0,0.0016590226758566712,0.0,0.0015860837076197034,8.064147320422432e-05,0.0014477791547652928
1623764919.817291,0.0,0.0,2.01,2.36,0.0,0.0,1.2195122241973877,-0.00244140625,0.015625,0.0,0.0016590226758566712,0.0,0.0015860837076197034,8.064147320422432e-05,0.0014477791547652928
1623764919.817291,0.0,0.0,2.0,2.35,0.0,0.0,1.2195122241973877,-0.00244140625,0.015625,0.0,0.0016590226758566712,0.0,0.0015642633400957447,8.064147320422432e-05,0.001441325847119573
1623764919.817291,0.0,0.0,2.0,2.35,0.0,0.0,1.2195122241973877,-0.00244140625,0.015625,0.0,0.0016590226758566712,0.0,0.0015642633400957447,8.064147320422432e-05,0.001441325847119573
1623764919.877291,0.0,0.0,2.0,2.35,0.0,0.0,1.2195122241973877,-0.00244140625,0.015625,0.0,0.001739276033086206,0.0,0.0015642633400957447,8.198484891132044e-05,0.001441325847119573
1623764919.877291,0.0,0.0,2.0,2.35,0.0,0.0,1.2195122241973877,-0.00244140625,0.015625,0.0,0.001739276033086206,0.0,0.0015642633400957447,8.198484891132044e-05,0.001441325847119573
1623764919.877291,0.0,0.0,2.0,2.35,0.0,0.0,1.2195122241973877,-0.00244140625,0.015625,0.0,0.001739276033086206,0.0,0.0015642633400957447,8.198484891132044e-05,0.001441325847119573
1623764919.877291,0.0,0.0,2.0,2.35,0.0,0.0,1.2195122241973877,-0.00927734375,0.0,0.0,0.001739276033086206,0.0,0.0015906366517522443,8.198484891132044e-05,0.0014575473277939357
1623764919.877291,0.0,0.0,2.0,2.35,0.0,0.0,1.2195122241973877,-0.00927734375,0.0,0.0,0.001739276033086206,0.0,0.0015906366517522443,8.198484891132044e-05,0.0014575473277939357
1623764919.9406319,0.0,0.0,2.0,2.35,0.0,0.0,1.2195122241973877,-0.00927734375,0.0,0.0,0.0016239127536320569,0.0,0.0015906366517522443,7.953138451042339e-05,0.0014575473277939357
1623764919.9406319,0.0,0.0,2.0,2.35,0.0,0.0,1.2195122241973877,-0.00927734375,0.0,0.0,0.0016239127536320569,0.0,0.0015906366517522443,7.953138451042339e-05,0.0014575473277939357
1623764919.9406319,0.0,0.0,2.0,2.37,0.0,0.0,1.2195122241973877,-0.00927734375,0.0,0.0,0.0016239127536320569,0.0,0.0015906366517522443,7.953138451042339e-05,0.0014575473277939357
1623764919.9406319,0.0,0.0,2.0,2.37,0.0,0.0,1.2195122241973877,-0.00927734375,0.0,0.0,0.0016239127536320569,0.0,0.0015443137269648727,7.953138451042339e-05,0.0014746111351321841
1623764919.9406319,0.0,0.0,2.0,2.37,0.0,0.0,1.2195122241973877,-0.00927734375,0.0,0.0,0.0016239127536320569,0.0,0.0015443137269648727,7.953138451042339e-05,0.0014746111351321841
1623764920.0006318,0.0,0.0,2.0,2.37,0.0,0.0,1.2195122241973877,-0.00927734375,0.0,0.0,0.0016306372174113041,0.0,0.0015443137269648727,7.885374785140275e-05,0.0014746111351321841
1623764920.0006318,0.0,0.0,2.0,2.37,0.0,0.0,1.2195122241973877,-0.00927734375,0.0,0.0,0.0016306372174113041,0.0,0.0015443137269648727,7.885374785140275e-05,0.0014746111351321841
1623764920.0006318,0.0,0.0,2.0,2.37,0.0,0.0,1.2195122241973877,-0.00927734375,0.0,0.0,0.0016306372174113041,0.0,0.0015443137269648727,7.885374785140275e-05,0.0014746111351321841
1623764920.0006318,0.0,0.0,2.0,2.37,0.0,0.0,1.2195122241973877,-0.00927734375,0.0,0.0,0.0016306372174113041,0.0,0.0015198803019654899,7.885374785140275e-05,0.00148250986713656
1623764920.0006318,0.0,0.0,2.0,2.37,0.0,0.0,1.1585365533828735,-0.009765625,0.00341796875,0.0,0.0016306372174113041,0.0,0.0015198803019654899,7.885374785140275e-05,0.00148250986713656
1623764920.060632,0.0,0.0,2.0,2.37,0.0,0.0,1.1585365533828735,-0.009765625,0.00341796875,0.0,0.001527503721630467,0.0,0.0015198803019654899,7.459629337147313e-05,0.00148250986713656
1623764920.060632,0.0,0.0,2.0,2.37,0.0,0.0,1.1585365533828735,-0.009765625,0.00341796875,0.0,0.001527503721630467,0.0,0.0015198803019654899,7.459629337147313e-05,0.00148250986713656
1623764920.060632,0.0,0.0,2.0,2.37,0.0,0.0,1.1585365533828735,-0.009765625,0.00341796875,0.0,0.001527503721630467,0.0,0.001453352269723212,7.459629337147313e-05,0.0014840131820428903
1623764920.060632,0.0,0.0,2.0,2.37,0.0,0.0,1.1585365533828735,-0.009765625,0.00341796875,0.0,0.001527503721630467,0.0,0.001453352269723212,7.459629337147313e-05,0.0014840131820428903
1623764920.060632,0.0,0.0,2.0,2.37,0.0,0.0,1.1585365533828735,-0.009765625,0.00341796875,0.0,0.001527503721630467,0.0,0.001453352269723212,7.459629337147313e-05,0.0014840131820428903
1623764920.086632,0.0,0.0,2.0,2.37,0.0,0.0,1.1585365533828735,-0.009765625,0.00341796875,0.0,0.001861705824494582,0.0,0.001453352269723212,0.00013244877743842098,0.0014840131820428903
1623764920.086632,0.0,0.0,2.0,2.37,0.0,0.0,1.1585365533828735,-0.009765625,0.00341796875,0.0,0.001861705824494582,0.0,0.001453352269723212,0.00013244877743842098,0.0014840131820428903
1623764920.086632,0.0,0.0,2.0,2.37,0.0,0.0,1.1585365533828735,-0.009765625,0.00341796875,0.0,0.001861705824494582,0.0,0.001453352269723212,0.00013244877743842098,0.0014840131820428903
1623764920.086632,0.0,0.0,2.0,2.37,0.0,0.0,1.2804877758026123,0.001953125,0.005859375,0.0,0.001861705824494582,0.0,0.001584163567126278,0.00013244877743842098,0.0014813961102677095
1623764920.086632,0.0,0.0,2.0,2.37,0.0,0.0,1.2804877758026123,0.001953125,0.005859375,0.0,0.001861705824494582,0.0,0.001584163567126278,0.00013244877743842098,0.0014813961102677095
1623764920.120632,0.0,0.0,2.0,2.37,0.0,0.0,1.2804877758026123,0.001953125,0.005859375,0.0,0.001793340377207888,0.0,0.001584163567126278,8.462146401391306e-05,0.0014813961102677095
1623764920.120632,0.0,0.0,2.0,2.37,0.0,0.0,1.2804877758026123,0.001953125,0.005859375,0.0,0.001793340377207888,0.0,0.001584163567126278,8.462146401391306e-05,0.0014813961102677095
1623764920.120632,0.0,0.0,2.02,2.38,0.0,0.0,1.2804877758026123,0.001953125,0.005859375,0.0,0.001793340377207888,0.0,0.001584163567126278,8.462146401391306e-05,0.0014813961102677095
1623764920.120632,0.0,0.0,2.02,2.38,0.0,0.0,1.2804877758026123,0.001953125,0.005859375,0.0,0.001793340377207888,0.0,0.0016048160777342112,8.462146401391306e-05,0.0014573382443657567
1623764920.120632,0.0,0.0,2.02,2.38,0.0,0.0,1.2804877758026123,0.001953125,0.005859375,0.0,0.001793340377207888,0.0,0.0016048160777342112,8.462146401391306e-05,0.0014573382443657567
1623764920.1806319,0.0,0.0,2.02,2.38,0.0,0.0,1.2804877758026123,0.001953125,0.005859375,0.0,0.0017519409805131815,0.0,0.0016048160777342112,8.394337006346822e-05,0.0014573382443657567
1623764920.1806319,0.0,0.0,2.02,2.38,0.0,0.0,1.2804877758026123,0.001953125,0.005859375,0.0,0.0017519409805131815,0.0,0.0016048160777342112,8.394337006346822e-05,0.0014573382443657567
1623764920.1806319,0.0,0.0,2.02,2.38,0.0,0.0,1.2804877758026123,0.001953125,0.005859375,0.0,0.0017519409805131815,0.0,0.0016202365543802365,8.394337006346822e-05,0.001473452483261804
1623764920.1806319,0.0,0.0,2.02,2.38,0.0,0.0,1.2804877758026123,-0.00244140625,0.013671875,0.0,0.0017519409805131815,0.0,0.0016202365543802365,8.394337006346822e-05,0.001473452483261804
1623764920.1806319,0.0,0.0,2.02,2.38,0.0,0.0,1.2804877758026123,-0.00244140625,0.013671875,0.0,0.0017519409805131815,0.0,0.0016202365543802365,8.394337006346822e-05,0.001473452483261804
1623764920.2406318,0.0,0.0,2.02,2.38,0.0,0.0,1.2804877758026123,-0.00244140625,0.013671875,0.0,0.0016420189999043636,0.0,0.0016202365543802365,7.98909510562743e-05,0.001473452483261804
1623764920.2406318,0.0,0.0,2.02,2.38,0.0,0.0,1.2804877758026123,-0.00244140625,0.013671875,0.0,0.0016420189999043636,0.0,0.0015715227490479544,7.98909510562743e-05,0.0014846566323881239
1623764920.2406318,0.0,0.0,2.01,2.37,0.0,0.0,1.2804877758026123,-0.00244140625,0.013671875,0.0,0.0016420189999043636,0.0,0.0015715227490479544,7.98909510562743e-05,0.0014846566323881239
1623764920.2406318,0.0,0.0,2.01,2.37,0.0,0.0,1.2804877758026123,-0.00244140625,0.013671875,0.0,0.0016420189999043636,0.0,0.0015715227490479544,7.98909510562743e-05,0.0014846566323881239
1623764920.2406318,0.0,0.0,2.01,2.37,0.0,0.0,1.2804877758026123,-0.00244140625,0.013671875,0.0,0.0016420189999043636,0.0,0.0015715227490479544,7.98909510562743e-05,0.0014846566323881239
1623764920.300632,0.0,0.0,2.01,2.37,0.0,0.0,1.2804877758026123,-0.00244140625,0.013671875,0.0,0.0018697942269323407,0.0,0.0015715227490479544,8.795800276005259e-05,0.0014846566323881239
1623764920.300632,0.0,0.0,2.01,2.37,0.0,0.0,1.2804877758026123,-0.00244140625,0.013671875,0.0,0.0018697942269323407,0.0,0.0016390702109031186,8.795800276005259e-05,0.0014999050696368986
1623764920.300632,0.0,0.0,2.01,2.37,0.0,0.0,1.2804877758026123,-0.0048828125,0.01318359375,0.0,0.0018697942269323407,0.0,0.0016390702109031186,8.795800276005259e-05,0.0014999050696368986
1623764920.300632,0.0,0.0,2.01,2.37,0.0,0.0,1.2804877758026123,-0.0048828125,0.01318359375,0.0,0.0018697942269323407,0.0,0.0016390702109031186,8.795800276005259e-05,0.0014999050696368986
1623764920.300632,0.0,0.0,2.01,2.37,0.0,0.0,1.2804877758026123,-0.0048828125,0.01318359375,0.0,0.0018697942269323407,0.0,0.0016390702109031186,8.795800276005259e-05,0.0014999050696368986
1623764920.360632,0.0,0.0,2.01,2.37,0.0,0.0,1.2804877758026123,-0.0048828125,0.01318359375,0.0,0.0017517006736746132,0.0,0.0016390702109031186,8.452157118977395e-05,0.0014999050696368986
1623764920.360632,0.0,0.0,2.01,2.37,0.0,0.0,1.2804877758026123,-0.0048828125,0.01318359375,0.0,0.0017517006736746132,0.0,0.0016115676101724208,8.452157118977395e-05,0.0015104760589680865
1623764920.360632,0.0,0.0,2.01,2.37,0.0,0.0,1.2804877758026123,-0.0048828125,0.01318359375,0.0,0.0017517006736746132,0.0,0.0016115676101724208,8.452157118977395e-05,0.0015104760589680865
1623764920.360632,0.0,0.0,2.01,2.37,0.0,0.0,1.2804877758026123,-0.0048828125,0.01318359375,0.0,0.0017517006736746132,0.0,0.0016115676101724208,8.452157118977395e-05,0.0015104760589680865
1623764920.360632,0.0,0.0,2.01,2.37,0.0,0.0,1.2804877758026123,-0.0048828125,0.01318359375,0.0,0.0017517006736746132,0.0,0.0016115676101724208,8.452157118977395e-05,0.0015104760589680865
1623764920.3786318,0.0,0.0,2.01,2.37,0.0,0.0,1.2804877758026123,-0.0048828125,0.01318359375,0.0,0.0019498774042595818,0.0,0.0016115676101724208,0.00012583546429200334,0.0015104760589680865
1623764920.3786318,0.0,0.0,2.01,2.37,0.0,0.0,1.2804877758026123,-0.0048828125,0.01318359375,0.0,0.0019498774042595818,0.0,0.0016115676101724208,0.00012583546429200334,0.0015104760589680865
1623764920.3786318,0.0,0.0,2.01,2.37,0.0,0.0,1.2804877758026123,-0.0048828125,0.01318359375,0.0,0.0019498774042595818,0.0,0.0016115676101724208,0.00012583546429200334,0.0015104760589680865
1623764920.3786318,0.0,0.0,2.01,2.37,0.0,0.0,1.2195122241973877,0.0,0.0009765625,0.0,0.0019498774042595818,0.0,0.0016115676101724208,0.00012583546429200334,0.0015104760589680865
1623764920.3786318,0.0,0.0,2.01,2.37,0.0,0.0,1.2195122241973877,0.0,0.0009765625,0.0,0.0019498774042595818,0.0,0.0016115676101724208,0.00012583546429200334,0.0015104760589680865
1623764920.420632,0.0,0.0,2.01,2.37,0.0,0.0,1.2195122241973877,0.0,0.0009765625,0.0,0.0018626432230843064,0.0,0.0017084998224733289,8.930986125157923e-05,0.0014899030381938325
1623764920.420632,0.0,0.0,2.01,2.37,0.0,0.0,1.2195122241973877,0.0,0.0009765625,0.0,0.0018626432230843064,0.0,0.0017084998224733289,8.930986125157923e-05,0.0014899030381938325
1623764920.420632,0.0,0.0,2.01,2.37,0.0,0.0,1.2195122241973877,0.0,0.0009765625,0.0,0.0018626432230843064,0.0,0.0017084998224733289,8.930986125157923e-05,0.0014899030381938325
1623764920.420632,0.0,0.0,2.01,2.37,0.0,0.0,1.2195122241973877,0.0,0.0009765625,0.0,0.0018626432230843064,0.0,0.0017084998224733289,8.930986125157923e-05,0.0014899030381938325
1623764920.420632,0.0,0.0,2.01,2.37,0.0,0.0,1.2195122241973877,0.0,0.0009765625,0.0,0.0018626432230843064,0.0,0.001711526046831043,8.930986125157923e-05,0.001481708368877037
1623764920.482632,0.0,0.0,2.01,2.37,0.0,0.0,1.2195122241973877,0.0,0.0009765625,0.0,0.0017086972916700506,0.0,0.0016605898966911834,8.734024184452871e-05,0.0015051417794764107
1623764920.482632,0.0,0.0,2.01,2.37,0.0,0.0,1.2195122241973877,0.0,0.0009765625,0.0,0.0017086972916700506,0.0,0.0016605898966911834,8.734024184452871e-05,0.0015051417794764107
1623764920.482632,0.0,0.0,2.01,2.37,0.0,0.0,1.2195122241973877,0.0,0.0009765625,0.0,0.0017086972916700506,0.0,0.0016605898966911834,8.734024184452871e-05,0.0015051417794764107
1623764920.482632,0.0,0.0,2.01,2.37,0.0,0.0,1.3414634466171265,0.00146484375,0.005859375,0.0,0.0017086972916700506,0.0,0.0016605898966911834,8.734024184452871e-05,0.0015051417794764107
1623764920.482632,0.0,0.0,2.01,2.37,0.0,0.0,1.3414634466171265,0.00146484375,0.005859375,0.0,0.0017086972916700506,0.0,0.0016605898966911834,8.734024184452871e-05,0.0015051417794764107
1623764920.540632,0.0,0.0,2.01,2.37,0.0,0.0,1.3414634466171265,0.00146484375,0.005859375,0.0,0.0016046197368795646,0.0,0.0016605898966911834,7.898233061900267e-05,0.0015051417794764107
1623764920.540632,0.0,0.0,2.01,2.37,0.0,0.0,1.3414634466171265,0.00146484375,0.005859375,0.0,0.0016046197368795646,0.0,0.0016605898966911834,7.898233061900267e-05,0.0015051417794764107
1623764920.540632,0.0,0.0,2.02,2.37,0.0,0.0,1.3414634466171265,0.00146484375,0.005859375,0.0,0.0016046197368795646,0.0,0.0016605898966911834,7.898233061900267e-05,0.0015051417794764107
1623764920.540632,0.0,0.0,2.02,2.37,0.0,0.0,1.3414634466171265,0.00146484375,0.005859375,0.0,0.0016046197368795646,0.0,0.0016605898966911834,7.898233061900267e-05,0.0015051417794764107
1623764920.540632,0.0,0.0,2.02,2.37,0.0,0.0,1.3414634466171265,0.00146484375,0.005859375,0.0,0.0016046197368795646,0.0,0.0015805211916498382,7.898233061900267e-05,0.0015118579887427174
1623764920.600632,0.0,0.0,2.02,2.37,0.0,0.0,1.3414634466171265,0.00146484375,0.005859375,0.0,0.001706615822639646,0.0,0.0015805211916498382,8.144585615386004e-05,0.0015118579887427174
1623764920.600632,0.0,0.0,2.02,2.37,0.0,0.0,1.3414634466171265,0.00146484375,0.005859375,0.0,0.001706615822639646,0.0,0.0015805211916498382,8.144585615386004e-05,0.0015118579887427174
1623764920.600632,0.0,0.0,2.02,2.37,0.0,0.0,1.3414634466171265,0.00146484375,0.005859375,0.0,0.001706615822639646,0.0,0.0015805211916498382,8.144585615386004e-05,0.0015118579887427174
1623764920.600632,0.0,0.0,2.02,2.37,0.0,0.0,1.1585365533828735,0.0048828125,0.009765625,0.0,0.001706615822639646,0.0,0.0015740558783718704,8.144585615386004e-05,0.0015207972121224866
1623764920.600632,0.0,0.0,2.02,2.37,0.0,0.0,1.1585365533828735,0.0048828125,0.009765625,0.0,0.001706615822639646,0.0,0.0015740558783718704,8.144585615386004e-05,0.0015207972121224866
1623764920.660632,0.0,0.0,2.02,2.37,0.0,0.0,1.1585365533828735,0.0048828125,0.009765625,0.0,0.0015988839599651312,0.0,0.0015740558783718704,7.765530558914511e-05,0.0015207972121224866
1623764920.660632,0.0,0.0,2.02,2.37,0.0,0.0,1.1585365533828735,0.0048828125,0.009765625,0.0,0.0015988839599651312,0.0,0.0015740558783718704,7.765530558914511e-05,0.0015207972121224866
1623764920.660632,0.0,0.0,2.02,2.37,0.0,0.0,1.1585365533828735,0.0048828125,0.009765625,0.0,0.0015988839599651312,0.0,0.0015740558783718704,7.765530558914511e-05,0.0015207972121224866
1623764920.660632,0.0,0.0,2.02,2.37,0.0,0.0,1.1585365533828735,0.0048828125,0.009765625,0.0,0.0015988839599651312,0.0,0.0015143055877026334,7.765530558914511e-05,0.00152388606882212
1623764920.660632,0.0,0.0,2.02,2.37,0.0,0.0,1.1585365533828735,0.0048828125,0.009765625,0.0,0.0015988839599651312,0.0,0.0015143055877026334,7.765530558914511e-05,0.00152388606882212
1623764920.670632,0.0,0.0,2.02,2.37,0.0,0.0,1.1585365533828735,0.0048828125,0.009765625,0.0,0.0017979082224633713,0.0,0.0015143055877026334,0.00010181554057825397,0.00152388606882212
1623764920.670632,0.0,0.0,2.02,2.37,0.0,0.0,1.1585365533828735,0.0048828125,0.009765625,0.0,0.0017979082224633713,0.0,0.0015143055877026334,0.00010181554057825397,0.00152388606882212
1623764920.670632,0.0,0.0,2.02,2.37,0.0,0.0,1.2804877758026123,-0.0107421875,0.0087890625,0.0,0.0017979082224633713,0.0,0.0015143055877026334,0.00010181554057825397,0.00152388606882212
1623764920.670632,0.0,0.0,2.02,2.37,0.0,0.0,1.2804877758026123,-0.0107421875,0.0087890625,0.0,0.0017979082224633713,0.0,0.0015901680528818162,0.00010181554057825397,0.001479655832358995
1623764920.670632,0.0,0.0,2.02,2.37,0.0,0.0,1.2804877758026123,-0.0107421875,0.0087890625,0.0,0.0017979082224633713,0.0,0.0015901680528818162,0.00010181554057825397,0.001479655832358995
1623764920.7206318,0.0,0.0,2.02,2.37,0.0,0.0,1.2804877758026123,-0.0107421875,0.0087890625,0.0,0.0017035164592042239,0.0,0.0015901680528818162,8.186022905079483e-05,0.001479655832358995
1623764920.7206318,0.0,0.0,2.02,2.37,0.0,0.0,1.2804877758026123,-0.0107421875,0.0087890625,0.0,0.0017035164592042239,0.0,0.0015901680528818162,8.186022905079483e-05,0.001479655832358995
1623764920.7206318,0.0,0.0,2.01,2.38,0.0,0.0,1.2804877758026123,-0.0107421875,0.0087890625,0.0,0.0017035164592042239,0.0,0.0015901680528818162,8.186022905079483e-05,0.001479655832358995
1623764920.7206318,0.0,0.0,2.01,2.38,0.0,0.0,1.2804877758026123,-0.0107421875,0.0087890625,0.0,0.0017035164592042239,0.0,0.0015835850554858156,8.186022905079483e-05,0.001478684435384881
1623764920.7206318,0.0,0.0,2.01,2.38,0.0,0.0,1.2804877758026123,-0.0107421875,0.0087890625,0.0,0.0017035164592042239,0.0,0.0015835850554858156,8.186022905079483e-05,0.001478684435384881
1623764920.780632,0.0018971688951655657,4.539547181168653e-10,2.01,2.38,0.0,0.0,1.2804877758026123,-0.0107421875,0.0087890625,0.023447485301389587,0.002039995145943441,0.0,0.0015835850554858156,9.206024041892694e-05,0.001478684435384881
1623764920.780632,0.0018971688951655657,4.539547181168653e-10,2.01,2.38,0.0,0.0,1.2804877758026123,-0.0107421875,0.0087890625,0.023447485301389587,0.002039995145943441,0.0,0.0015835850554858156,9.206024041892694e-05,0.001478684435384881
1623764920.780632,0.0018971688951655657,4.539547181168653e-10,2.01,2.38,0.0,0.0,1.1585365533828735,0.00537109375,0.0029296875,0.023447485301389587,0.002039995145943441,0.0036113303990020496,0.0017315165375478107,9.206024041892694e-05,0.0015022007225321949
1623764920.780632,0.0018971688951655657,4.539547181168653e-10,2.01,2.38,0.0,0.0,1.1585365533828735,0.00537109375,0.0029296875,0.023447485301389587,0.002039995145943441,0.0036113303990020496,0.0017315165375478107,9.206024041892694e-05,0.0015022007225321949
1623764920.780632,0.0018971688951655657,4.539547181168653e-10,2.01,2.38,0.011760870926082134,0.0,1.1585365533828735,0.00537109375,0.0029296875,0.023447485301389587,0.002039995145943441,0.0036113303990020496,0.0017315165375478107,9.206024041892694e-05,0.0015022007225321949
1623764920.840632,0.005319030159820325,7.185015116351195e-09,2.01,2.38,0.011760870926082134,0.0,1.1585365533828735,0.00537109375,0.0029296875,0.0448217103894004,0.0019119436928757433,0.0036113303990020496,0.0017315165375478107,9.053489497308175e-05,0.0015022007225321949
1623764920.840632,0.005319030159820325,7.185015116351195e-09,2.0,2.33,0.011760870926082134,0.0,1.1585365533828735,0.00537109375,0.0029296875,0.0448217103894004,0.0019119436928757433,0.0036113303990020496,0.0017315165375478107,9.053489497308175e-05,0.0015022007225321949
1623764920.840632,0.005319030159820325,7.185015116351195e-09,2.0,2.33,0.011760870926082134,0.0,1.1585365533828735,0.00537109375,0.0029296875,0.0448217103894004,0.0019119436928757433,0.010242511732670049,0.0017388384652515928,9.053489497308175e-05,0.0015234124273769917
1623764920.840632,0.005319030159820325,7.185015116351195e-09,2.0,2.33,0.011760870926082134,0.0,1.1585365533828735,0.00537109375,0.0029296875,0.0448217103894004,0.0019119436928757433,0.010242511732670049,0.0017388384652515928,9.053489497308175e-05,0.0015234124273769917
1623764920.840632,0.005319030159820325,7.185015116351195e-09,2.0,2.33,0.011760870926082134,0.0,1.1585365533828735,0.00537109375,0.0029296875,0.0448217103894004,0.0019119436928757433,0.010242511732670049,0.0017388384652515928,9.053489497308175e-05,0.0015234124273769917
1623764920.900632,0.009845682498872967,2.8247361449776865e-08,2.0,2.33,0.055259790271520615,-0.03297276049852371,1.1585365533828735,0.00537109375,0.0029296875,0.06382805786876065,0.001990424480949829,0.010242511732670049,0.0017388384652515928,9.443704875097047e-05,0.0015234124273769917
1623764920.900632,0.009845682498872967,2.8247361449776865e-08,2.0,2.33,0.055259790271520615,-0.03297276049852371,1.1585365533828735,0.00537109375,0.0029296875,0.06382805786876065,0.001990424480949829,0.010242511732670049,0.0017388384652515928,9.443704875097047e-05,0.0015234124273769917
1623764920.900632,0.009845682498872967,2.8247361449776865e-08,2.0,2.33,0.055259790271520615,-0.03297276049852371,1.1585365533828735,0.00537109375,0.0029296875,0.06382805786876065,0.001990424480949829,0.01919369315229448,0.001784452883046945,9.443704875097047e-05,0.0015456354007243709
1623764920.900632,0.009845682498872967,2.8247361449776865e-08,2.0,2.33,0.055259790271520615,-0.03297276049852371,-1.5243902206420898,0.0517578125,-0.193359375,0.06382805786876065,0.001990424480949829,0.01919369315229448,0.001784452883046945,9.443704875097047e-05,0.0015456354007243709
1623764920.900632,0.009845682498872967,2.8247361449776865e-08,2.0,2.33,0.055259790271520615,-0.03297276049852371,-1.5243902206420898,0.0517578125,-0.193359375,0.06382805786876065,0.001990424480949829,0.01919369315229448,0.001784452883046945,9.443704875097047e-05,0.0015456354007243709
1623764920.9606318,0.015267110986207045,6.969422502055992e-08,2.0,2.33,0.055259790271520615,-0.03297276049852371,-1.5243902206420898,0.0517578125,-0.193359375,0.08269193971570875,0.0018341784988389954,0.01919369315229448,0.001784452883046945,-0.00046714765349278853,0.0015456354007243709
1623764920.9606318,0.015267110986207045,6.969422502055992e-08,1.99,2.34,0.055259790271520615,-0.03297276049852371,-1.5243902206420898,0.0517578125,-0.193359375,0.08269193971570875,0.0018341784988389954,0.01919369315229448,0.001784452883046945,-0.00046714765349278853,0.0015456354007243709
1623764920.9606318,0.015267110986207045,6.969422502055992e-08,1.99,2.34,0.14096958935260773,0.03302300348877907,-1.5243902206420898,0.0517578125,-0.193359375,0.08269193971570875,0.0018341784988389954,0.030138608606906214,0.0017060810621615666,-0.00046714765349278853,0.0015269476714707146
1623764920.9606318,0.015267110986207045,6.969422502055992e-08,1.99,2.34,0.14096958935260773,0.03302300348877907,-1.5243902206420898,0.0517578125,-0.193359375,0.08269193971570875,0.0018341784988389954,0.030138608606906214,0.0017060810621615666,-0.00046714765349278853,0.0015269476714707146
1623764920.9606318,0.015267110986207045,6.969422502055992e-08,1.99,2.34,0.14096958935260773,0.03302300348877907,-1.5243902206420898,0.0517578125,-0.193359375,0.0900365864103329,0.001197052609593246,0.030138608606906214,0.0017060810621615666,-0.00045646259243422937,0.0015269476714707146
1623764920.982632,0.019866372137563006,1.0099942437671164e-07,1.99,2.34,0.14096958935260773,0.03302300348877907,-1.5243902206420898,0.0517578125,-0.193359375,0.0900365864103329,0.001197052609593246,0.030138608606906214,0.0017060810621615666,-0.00045646259243422937,0.0015269476714707146
1623764920.982632,0.019866372137563006,1.0099942437671164e-07,1.99,2.34,0.14096958935260773,0.03302300348877907,-1.5243902206420898,0.0517578125,-0.193359375,0.0900365864103329,0.001197052609593246,0.030138608606906214,0.0017060810621615666,-0.00045646259243422937,0.0015269476714707146
1623764920.982632,0.019866372137563006,1.0099942437671164e-07,1.99,2.34,0.2656172215938568,-0.01653674803674221,-1.5243902206420898,0.0517578125,-0.193359375,0.0900365864103329,0.001197052609593246,0.030138608606906214,0.0017060810621615666,-0.00045646259243422937,0.0015269476714707146
1623764920.982632,0.019866372137563006,1.0099942437671164e-07,1.99,2.34,0.2656172215938568,-0.01653674803674221,0.4268292784690857,-0.1220703125,0.01318359375,0.0900365864103329,0.001197052609593246,0.030138608606906214,0.0017060810621615666,-0.00045646259243422937,0.0015269476714707146
1623764920.982632,0.019866372137563006,1.0099942437671164e-07,1.99,2.34,0.2656172215938568,-0.01653674803674221,0.4268292784690857,-0.1220703125,0.01318359375,0.0900365864103329,0.001197052609593246,0.030138608606906214,0.0017060810621615666,-0.00045646259243422937,0.0015269476714707146
1623764921.020632,0.024662619651200424,2.9800895199940767e-08,1.99,2.34,0.2656172215938568,-0.01653674803674221,0.4268292784690857,-0.1220703125,0.01318359375,0.10208484143552503,0.0011537273282790357,0.039251820478679186,0.0014581863765784119,-0.00036618553922899787,0.0014697884153978354
1623764921.020632,0.024662619651200424,2.9800895199940767e-08,2.0,2.34,0.2656172215938568,-0.01653674803674221,0.4268292784690857,-0.1220703125,0.01318359375,0.10208484143552503,0.0011537273282790357,0.039251820478679186,0.0014581863765784119,-0.00036618553922899787,0.0014697884153978354
1623764921.020632,0.024662619651200424,2.9800895199940767e-08,2.0,2.34,0.2656172215938568,-0.01653674803674221,0.4268292784690857,-0.1220703125,0.01318359375,0.10208484143552503,0.0011537273282790357,0.039251820478679186,0.0014581863765784119,-0.00036618553922899787,0.0014697884153978354
1623764921.020632,0.024662619651200424,2.9800895199940767e-08,2.0,2.34,0.37945011258125305,-0.049534231424331665,0.4268292784690857,-0.1220703125,0.01318359375,0.10208484143552503,0.0011537273282790357,0.039251820478679186,0.0014581863765784119,-0.00036618553922899787,0.0014697884153978354
1623764921.020632,0.024662619651200424,2.9800895199940767e-08,2.0,2.34,0.37945011258125305,-0.049534231424331665,0.4268292784690857,-0.1220703125,0.01318359375,0.09996650384048211,0.00158859391595072,0.049144177148425436,0.00129354526514806,-0.0008490068861216608,0.0014082963587973482
1623764921.086632,0.02866676317831362,-4.5629253907610725e-07,2.0,2.34,0.37945011258125305,-0.049534231424331665,0.4268292784690857,-0.1220703125,0.01318359375,0.09996650384048211,0.00158859391595072,0.049144177148425436,0.00129354526514806,-0.0008490068861216608,0.0014082963587973482
1623764921.086632,0.02866676317831362,-4.5629253907610725e-07,2.0,2.34,0.37945011258125305,-0.049534231424331665,0.4268292784690857,-0.1220703125,0.01318359375,0.09996650384048211,0.00158859391595072,0.05839889116268259,0.0013499191402347385,-0.0008490068861216608,0.0013721699087780837
1623764921.086632,0.02866676317831362,-4.5629253907610725e-07,2.0,2.34,0.37945011258125305,-0.049534231424331665,-1.0365853309631348,0.4833984375,-0.82080078125,0.09996650384048211,0.00158859391595072,0.05839889116268259,0.0013499191402347385,-0.0008490068861216608,0.0013721699087780837
1623764921.086632,0.02866676317831362,-4.5629253907610725e-07,2.0,2.34,0.37945011258125305,-0.049534231424331665,-1.0365853309631348,0.4833984375,-0.82080078125,0.09996650384048211,0.00158859391595072,0.05839889116268259,0.0013499191402347385,-0.0008490068861216608,0.0013721699087780837
1623764921.140632,0.0324645246601087,-2.426614938833115e-06,2.0,2.34,0.49648573994636536,0.016510700806975365,-1.0365853309631348,0.4833984375,-0.82080078125,0.10584256058554928,0.0014422723562610008,0.05839889116268259,0.0013499191402347385,-0.002007710910863729,0.0013721699087780837
1623764921.140632,0.0324645246601087,-2.426614938833115e-06,2.0,2.34,0.49648573994636536,0.016510700806975365,-1.0365853309631348,0.4833984375,-0.82080078125,0.10584256058554928,0.0014422723562610008,0.06718225808033385,0.0012511993870863605,-0.002007710910863729,0.0012207115702968325
1623764921.140632,0.0324645246601087,-2.426614938833115e-06,2.02,2.35,0.49648573994636536,0.016510700806975365,-1.0365853309631348,0.4833984375,-0.82080078125,0.10584256058554928,0.0014422723562610008,0.06718225808033385,0.0012511993870863605,-0.002007710910863729,0.0012207115702968325
1623764921.140632,0.0324645246601087,-2.426614938833115e-06,2.02,2.35,0.49648573994636536,0.016510700806975365,-1.0365853309631348,0.4833984375,-0.82080078125,0.10584256058554928,0.0014422723562610008,0.06718225808033385,0.0012511993870863605,-0.002007710910863729,0.0012207115702968325
1623764921.140632,0.0324645246601087,-2.426614938833115e-06,2.02,2.35,0.49648573994636536,0.016510700806975365,-1.0365853309631348,0.4833984375,-0.82080078125,0.10584256058554928,0.0014422723562610008,0.06718225808033385,0.0012511993870863605,-0.002007710910863729,0.0012207115702968325
1623764921.2006319,0.0365754828117652,-5.443525159007665e-06,2.02,2.35,0.5436009168624878,0.016512831673026085,-1.0365853309631348,0.4833984375,-0.82080078125,0.11771681233782556,-0.0016061758884023578,0.06718225808033385,0.0012511993870863605,-0.0020661937615934203,0.0012207115702968325
1623764921.2006319,0.0365754828117652,-5.443525159007665e-06,2.02,2.35,0.5436009168624878,0.016512831673026085,-1.0365853309631348,0.4833984375,-0.82080078125,0.11771681233782556,-0.0016061758884023578,0.06718225808033385,0.0012511993870863605,-0.0020661937615934203,0.0012207115702968325
1623764921.2006319,0.0365754828117652,-5.443525159007665e-06,2.02,2.35,0.5436009168624878,0.016512831673026085,2.5,0.2626953125,-0.0498046875,0.11771681233782556,-0.0016061758884023578,0.06718225808033385,0.0012511993870863605,-0.0020661937615934203,0.0012207115702968325
1623764921.2006319,0.0365754828117652,-5.443525159007665e-06,2.02,2.35,0.5436009168624878,0.016512831673026085,2.5,0.2626953125,-0.0498046875,0.11771681233782556,-0.0016061758884023578,0.06718225808033385,0.0012511993870863605,-0.0020661937615934203,0.0012207115702968325
1623764921.2006319,0.0365754828117652,-5.443525159007665e-06,2.02,2.35,0.5436009168624878,0.016512831673026085,2.5,0.2626953125,-0.0498046875,0.11771681233782556,-0.0016061758884023578,0.07697015649057685,-0.00012113082416701144,-0.0020661937615934203,0.000974877702752883
1623764921.2606318,0.04130681781893441,-8.584901921504212e-06,2.02,2.35,0.5436009168624878,0.016512831673026085,2.5,0.2626953125,-0.0498046875,0.13423358342803088,-0.001495015127997246,0.07697015649057685,-0.00012113082416701144,-0.0018715949451370635,0.000974877702752883
